AccX[mg]	AccY[mg]	AccZ[mg]	GyrX[dps]	GyrY[dps]	GyrZ[dps]	
-13.969000	10.858000	989.237000	0.883750	-2.209375	-3.093125
-9.821000	-1.769000	1009.244995	0.883750	-2.209375	0.000000
-10.004000	6.039000	1010.892029	-0.240625	0.800625	-0.196875
-5.795000	-2.257000	1015.223022	-0.210000	0.507500	-0.096250
-13.603000	-0.366000	1019.127014	-0.249375	0.656250	0.472500
-10.187000	-24.583000	1020.408020	-0.354375	0.625625	3.228750
-1.891000	-4.209000	1013.637024	-0.367500	0.551250	0.770000
-10.736000	0.122000	1014.064026	-0.424375	0.603750	-0.175000
-13.664001	-1.830000	1016.382019	-0.319375	0.411250	-0.231875
-5.307000	1.281000	1013.820007	-0.262500	0.560000	-0.367500
-2.867000	4.819000	1013.697998	-0.306250	0.503125	-0.297500
-8.357000	1.586000	1008.452026	-0.450625	0.424375	-0.122500
-13.176001	-0.122000	1014.856995	-0.192500	0.371875	-0.183750
-8.723001	-0.488000	1013.210022	-0.188125	0.551250	-0.406875
-5.673000	0.488000	1013.210022	-0.411250	0.406875	-0.332500
-5.856000	3.477000	1019.859009	-0.323750	0.721875	-0.358750
-8.418000	5.795000	1013.637024	-0.275625	0.555625	-0.284375
-10.370000	-1.220000	1014.429993	-0.446250	0.507500	-0.310625
-9.516000	7.991000	1013.820007	-0.288750	0.511875	-0.332500
-8.662000	4.880000	1015.161987	-0.008750	0.424375	-0.253750
-5.978000	7.198000	1013.697998	-0.113750	0.472500	-0.201250
-8.906000	-3.477000	1015.955017	-0.249375	0.525000	-0.323750
-8.174000	0.915000	1017.846008	-0.371875	0.870625	-0.450625
-6.344000	0.732000	1017.358032	-0.218750	0.774375	-0.385000
-5.490000	-1.952000	1016.747986	-0.280000	0.367500	-0.262500
-14.213000	2.623000	1011.867981	-0.376250	0.446250	-0.371875
-3.233000	1.952000	1019.127014	-0.188125	0.411250	-0.284375
-7.808000	2.318000	1016.869995	-0.616875	0.560000	-0.411250
-10.248000	-0.854000	1012.843994	-0.406875	0.437500	-0.358750
-8.540000	3.233000	1016.199036	-0.363125	0.656250	-0.236250
-4.697000	-8.601000	1008.268982	-1.312500	0.638750	-0.481250
-3.538000	19.764000	1010.038025	-0.109375	0.726250	1.951250
-2.684000	5.246000	1009.916016	0.511875	0.599375	1.990625
-8.113000	24.705000	1019.798035	0.153125	0.551250	2.804375
-13.603000	-0.427000	1016.869995	-0.105000	0.498750	0.564375
-11.346000	1.830000	1017.663025	-0.468125	0.490000	-1.570625
-7.503000	0.000000	1016.747986	-0.608125	0.818125	-0.301875
-30.195000	-29.280001	1016.015991	-1.723750	0.660625	-10.128125
-1.708000	-2.074000	1002.108032	-2.432500	0.008750	-10.797500
4.697000	-61.061001	1060.667969	-3.937500	0.634375	-9.235625
-29.402000	42.395000	1086.471069	-4.016250	0.980000	-9.576875
-13.298000	5.673000	1010.526001	-2.397500	0.446250	-3.587500
-9.089000	-16.896999	1013.270996	-0.879375	0.472500	-0.345625
-1.281000	-5.002000	1013.942017	-2.371250	0.376250	-0.455000
-9.333000	-6.710000	1016.382019	1.198750	0.420000	0.266875
24.948999	38.674000	1000.400024	6.094375	1.023750	-0.420000
-86.253998	18.788000	855.890991	0.752500	0.332500	9.603125
21.716000	-79.726997	1118.130005	-0.056875	1.058750	10.303125
-20.069000	-7.442000	1027.545044	-3.110625	0.621250	3.368750
-22.204000	-29.951000	1014.979004	-3.451875	0.385000	1.614375
-15.067000	18.300001	1019.614990	-1.535625	0.450625	3.430000
3.599000	9.455000	1014.186035	-0.424375	0.756875	2.301250
-2.501000	12.627000	1018.639038	-0.463750	0.520625	3.241875
27.938000	191.235001	979.355042	2.016875	0.411250	13.667500
-11.712000	-17.323999	1017.236023	0.901250	1.885625	27.496876
-16.104000	-22.204000	1017.968018	-1.006250	0.367500	-3.696875
-13.908000	-40.869999	1013.697998	-7.940625	0.048125	-3.924375
-12.322001	8.235000	1011.746033	-6.960625	0.441875	-3.154375
17.202000	32.635002	1012.234009	-4.200000	0.533750	-2.275000
-4.087000	-8.967000	1020.225037	-2.310000	0.280000	-1.089375
-4.636000	-27.328001	1013.759033	-1.321250	0.538125	-0.258125
-8.540000	-9.577000	1015.283997	-0.708750	0.748125	0.074375
-13.420000	-16.896999	1018.882996	-0.280000	0.796250	-0.153125
-5.551000	-15.372000	1014.796021	0.043750	0.546875	-0.411250
-11.773000	-12.078000	1015.406006	-0.630000	0.468125	-0.284375
-11.468000	-29.524000	1002.413025	-0.026250	0.402500	-0.035000
-5.917000	-18.788000	1016.992004	-0.472500	0.481250	-0.153125
-10.004000	-19.642000	1012.112000	-0.844375	0.328125	-0.192500
-8.906000	-7.808000	1014.674011	-0.179375	0.656250	-0.210000
-10.248000	-12.566000	1011.257996	-3.443125	0.126875	-0.367500
-2.623000	-15.494000	1012.600037	-0.236250	0.542500	-0.402500
-6.588000	-13.908000	1016.565002	0.380625	0.529375	-0.306250
-11.895000	-9.455000	1014.064026	-1.942500	0.468125	-0.293125
-11.224000	-13.786000	1011.502014	-0.065625	0.472500	-0.345625
-11.102000	-7.381000	1015.040039	-0.135625	0.402500	-0.227500
-6.649000	-11.712000	1016.626038	0.713125	0.682500	0.008750
-5.978000	-10.858000	1015.893982	-0.144375	0.713125	0.013125
-8.418000	-11.468000	1014.796021	-0.297500	0.498750	0.231875
-7.320000	-16.469999	1021.200989	-0.415625	0.555625	0.026250
-10.126000	-12.993000	1016.869995	-1.220625	0.546875	-0.109375
-4.697000	-9.577000	1015.893982	-0.494375	0.498750	-0.328125
-11.407001	-18.726999	1012.721985	-0.153125	0.713125	-0.603750
-8.357000	-11.163000	1014.064026	-0.656250	0.468125	-1.150625
-6.161000	-14.152000	1016.869995	-0.774375	0.787500	-1.946875
-5.856000	-11.651000	1013.942017	-0.743750	0.538125	-1.150625
-7.686000	-13.054000	1019.614990	-1.273125	0.853125	-0.516250
-6.222000	-17.446001	1017.601990	-1.036875	0.503125	-0.280000
-11.773000	-16.592001	1013.210022	-1.373750	0.249375	-0.800625
-10.126000	-13.237000	1015.650024	-1.045625	0.385000	-0.651875
-5.795000	-15.372000	1014.552002	-0.647500	0.678125	-0.301875
-9.394000	-14.030000	1014.674011	-0.345625	0.560000	-0.323750
-6.283000	-15.616000	1011.502014	0.380625	0.301875	-0.179375
-12.505000	-19.398001	1021.200989	1.050000	0.551250	-0.052500
14.274000	-29.585001	1015.467041	4.886875	1.058750	-5.770625
-24.827000	-2.806000	1019.371033	2.747500	0.984375	-7.949375
18.544001	-12.139000	1005.280029	6.820625	1.373750	-10.591875
-23.363001	-4.819000	1033.583984	3.701250	0.376250	-1.907500
-5.063000	21.837999	1007.415039	-1.203125	0.586250	6.864375
-15.433001	2.562000	1022.726013	-2.695000	0.818125	5.263125
7.137000	17.202000	1010.038025	-5.530000	0.227500	1.155000
13.603000	37.149002	1008.940002	0.822500	0.809375	1.745625
-17.568001	-47.396999	1067.865967	3.066875	0.691250	6.055000
-62.220001	-48.983002	1011.807007	-0.135625	0.603750	-4.983125
-25.193001	-14.457000	1014.247009	-0.796250	0.647500	-0.315000
-4.819000	-5.673000	1016.260010	-10.010000	-0.306250	3.736250
6.954000	24.644001	1002.840027	-5.600000	0.052500	1.505000
-8.784000	32.513000	1006.072998	3.014375	0.923125	2.415000
-56.242001	58.011002	892.552002	12.486250	0.748125	12.556250
18.666000	9.760000	1013.210022	3.753750	0.612500	2.428125
-27.694000	-15.921000	1014.064026	0.805000	0.581875	-2.913750
-12.078000	-15.616000	1004.121033	-1.360625	0.227500	-1.080625
-24.339001	-6.771000	1015.893982	-10.132500	-0.603750	-0.682500
-8.601000	-14.091001	1017.663025	-0.052500	0.472500	-0.638750
-6.832000	-12.688000	1022.543030	2.966250	0.949375	-0.835625
-9.028000	22.509001	1019.919983	10.198125	2.082500	1.640625
-16.775000	-30.561001	1019.066040	3.123750	0.988750	1.863750
-5.856000	1.708000	1024.739014	-0.262500	0.398125	0.175000
-13.237000	2.928000	1019.371033	-0.568750	0.656250	-0.280000
-10.553000	-0.366000	1011.319031	-0.266875	0.686875	-0.166250
-15.677000	-4.270000	1016.077026	-0.253750	0.459375	-0.332500
-3.172000	-0.793000	1011.746033	-0.315000	0.739375	-0.450625
-7.198000	2.501000	1016.565002	-0.122500	0.516250	-0.306250
-9.272000	0.122000	1019.676025	-0.240625	0.446250	-0.297500
-10.004000	0.732000	1017.723999	-0.253750	0.490000	-0.332500
-6.771000	3.721000	1016.260010	-0.192500	0.665000	-0.293125
-8.784000	2.928000	1016.869995	-0.280000	0.590625	-0.205625
-10.492001	-3.599000	1009.855042	-0.371875	0.590625	-0.258125
-9.272000	-2.562000	1015.710999	-0.240625	0.507500	-0.258125
-8.052000	3.965000	1017.114014	-0.284375	0.485625	-0.332500
0.549000	4.514000	1017.114014	-0.437500	0.726250	-0.271250
-4.636000	-0.488000	1017.968018	-0.288750	0.770000	-0.319375
-4.880000	0.366000	1016.565002	-0.126875	0.288750	-0.358750
-5.612000	3.355000	1016.260010	-0.402500	0.568750	-0.323750
-13.847000	-1.586000	1016.504028	-0.398125	0.700000	-0.332500
-9.455000	1.769000	1016.992004	-0.371875	0.595000	-0.376250
-11.956000	-0.122000	1015.650024	-0.350000	0.826875	-0.306250
-12.322001	1.220000	1018.273010	-0.297500	0.380625	-0.380625
-9.577000	-2.806000	1015.650024	-0.315000	0.516250	-0.341250
-5.673000	2.013000	1017.785034	0.013125	0.533750	-0.319375
-13.481000	0.854000	1014.674011	-0.315000	0.507500	-0.341250
-15.250000	-1.464000	1018.882996	-0.441875	0.490000	-0.450625
-5.917000	-0.976000	1015.528015	-0.393750	0.713125	-0.363125
-12.749001	0.122000	1016.747986	-0.144375	0.616875	-0.389375
-12.322001	-5.063000	1015.161987	-0.253750	0.468125	-0.315000
-7.625000	1.769000	1012.721985	-0.323750	0.638750	-0.415625
-8.662000	0.244000	1016.809021	-0.100625	0.463750	-0.328125
-7.198000	2.562000	1017.723999	-0.328125	0.476875	-0.280000
-11.102000	-2.684000	1017.236023	-0.109375	0.765625	-0.280000
33.916000	-94.306000	1007.171021	-4.274375	0.315000	-1.793750
0.488000	-71.431000	846.009033	-37.205002	-10.421250	-0.608125
118.035004	-176.473007	1110.016968	35.074375	11.935000	5.320000
-98.576004	106.567001	1050.664062	2.957500	0.433125	22.448126
-79.361000	150.548004	1090.619019	9.397500	1.496250	3.749375
-5.612000	6.832000	1027.239990	3.679375	0.940625	-0.953750
6.466000	41.663002	1001.924988	-3.583125	0.498750	7.113750
-38.063999	-20.984001	1003.572021	5.831875	1.242500	5.958750
-18.117001	-30.683001	1007.293030	-0.074375	1.198750	3.075625
-9.699000	0.732000	1019.066040	-0.415625	0.896875	0.822500
-8.174000	2.318000	1017.480042	0.455000	0.507500	-0.021875
-12.200000	0.732000	1013.820007	-0.223125	0.433125	-0.293125
-5.734000	-1.708000	1017.541016	-0.341250	0.494375	-0.398125
-4.636000	-1.464000	1019.187988	-0.231875	0.573125	-0.227500
-8.540000	-2.196000	1018.333984	-0.468125	0.455000	-0.236250
-11.956000	1.647000	1019.919983	-0.538125	0.704375	-0.306250
-13.542000	5.795000	1013.637024	-0.253750	0.538125	-0.301875
-10.858000	-5.673000	1018.639038	-0.310625	0.393750	-0.332500
-14.396000	-0.427000	1013.575989	-0.406875	0.468125	-0.205625
-7.137000	2.623000	1014.674011	-0.236250	0.774375	-0.306250
-10.370000	2.440000	1017.541016	-0.179375	0.568750	-0.380625
-8.174000	5.917000	1018.455994	-0.319375	0.354375	-0.315000
-8.296000	0.610000	1014.307983	-0.258125	0.450625	-0.350000
-9.760000	2.867000	1014.918030	-0.087500	0.630000	-0.288750
-5.063000	-0.732000	1018.639038	-0.323750	0.507500	-0.319375
-11.651000	-1.464000	1015.772034	-0.297500	0.507500	-0.306250
-7.625000	4.697000	1010.648010	-0.288750	0.761250	-0.284375
-8.906000	0.000000	1014.979004	-0.341250	0.542500	-0.271250
-8.784000	-0.122000	1019.737000	-0.345625	0.638750	-0.214375
-9.272000	1.098000	1017.114014	-0.188125	0.516250	-0.227500
-7.564000	2.196000	1019.859009	-0.271250	0.643125	-0.157500
-12.078000	4.331000	1015.283997	-0.336875	0.560000	-0.240625
-11.102000	2.440000	1016.260010	-0.367500	0.546875	-0.192500
-15.738000	-0.854000	1010.343018	-0.240625	0.787500	-0.196875
-14.396000	-6.161000	1014.369019	-0.223125	0.542500	-0.341250
-8.845000	-3.355000	1017.296997	-0.437500	0.638750	-0.371875
-5.795000	2.989000	1015.772034	-0.411250	0.695625	-0.437500
-7.198000	3.294000	1017.906982	-0.385000	0.665000	-0.411250
-8.540000	-0.976000	1015.772034	-0.630000	0.656250	-0.420000
-7.930000	5.429000	1013.575989	-0.288750	0.555625	-0.341250
-7.076000	-2.989000	1019.371033	-0.113750	0.455000	-0.437500
-8.540000	-4.331000	1015.283997	-0.196875	0.406875	-0.227500
-10.004000	-0.427000	1013.942017	-0.214375	0.643125	-0.310625
-10.492001	-1.464000	1012.600037	-0.109375	0.761250	-0.406875
-11.346000	6.161000	1009.916016	-0.135625	0.345625	-0.275625
-12.078000	0.305000	1009.549988	-0.415625	0.441875	-0.271250
-18.605000	1.586000	1015.833008	-0.323750	0.735000	-0.310625
-9.455000	-5.795000	1015.528015	-0.231875	0.494375	-0.315000
-5.673000	-1.525000	1014.552002	-0.398125	0.616875	-0.345625
-8.418000	0.122000	1018.517029	-0.262500	0.730625	-0.280000
-3.233000	4.392000	1015.040039	-0.472500	0.656250	-0.389375
-9.089000	3.660000	1016.015991	-0.459375	0.573125	-0.262500
-12.566000	-1.952000	1020.713013	-0.363125	0.678125	-0.166250
-9.333000	-2.684000	1017.480042	-0.096250	0.695625	-0.323750
-8.540000	-0.366000	1014.674011	-0.192500	0.367500	-0.301875
-11.468000	-5.917000	1014.674011	-0.363125	0.682500	-0.293125
-11.956000	8.052000	1016.504028	-0.236250	0.695625	-0.406875
-7.625000	-1.891000	1016.992004	-0.315000	0.542500	-0.306250
-5.734000	-0.244000	1018.578003	-0.402500	0.647500	-0.236250
-6.344000	-1.220000	1013.088013	-0.070000	0.625625	-0.341250
-11.224000	-2.318000	1019.127014	-0.170625	0.625625	-0.288750
-16.104000	-8.235000	1017.480042	-0.148750	0.608125	-0.310625
-3.538000	-1.891000	1014.918030	-0.126875	0.398125	-0.280000
-3.782000	1.525000	1017.480042	-0.336875	0.424375	-0.301875
-11.407001	1.464000	1020.103027	-0.406875	0.503125	-0.306250
-15.860001	1.464000	1012.294983	-0.144375	0.603750	-0.306250
-6.649000	2.074000	1018.760986	-0.161875	0.616875	-0.262500
-3.599000	-6.527000	1018.455994	-0.214375	0.459375	-0.350000
-9.577000	3.111000	1018.455994	-0.258125	0.494375	-0.376250
-8.906000	-4.941000	1013.088013	-0.459375	0.625625	-0.249375
-6.771000	-2.257000	1016.320984	-0.428750	0.787500	-0.280000
-11.773000	-7.564000	1014.552002	-0.358750	0.568750	-0.345625
-9.211000	-1.159000	1017.785034	-0.420000	0.485625	-0.350000
-10.248000	3.355000	1011.441040	-0.306250	0.691250	-0.332500
-8.662000	4.270000	1014.369019	-0.157500	0.643125	-0.371875
-5.551000	1.952000	1015.161987	-0.192500	0.752500	-0.236250
-11.651000	-4.941000	1018.151001	-0.236250	0.525000	-0.293125
-8.601000	4.087000	1018.212036	-0.297500	0.328125	-0.240625
-13.725000	-7.259000	1015.283997	-0.398125	0.533750	-0.284375
-8.479000	-0.732000	1016.260010	-0.188125	0.441875	-0.223125
-14.457000	-6.405000	1015.040039	-0.328125	0.323750	-0.332500
-8.967000	-2.257000	1014.918030	-0.476875	0.555625	-0.363125
-4.697000	2.379000	1015.772034	-0.113750	0.608125	-0.288750
-6.588000	2.928000	1016.015991	-0.192500	0.402500	-0.301875
-11.224000	0.488000	1013.942017	-0.332500	0.450625	-0.253750
-9.150001	4.941000	1014.796021	-0.389375	0.428750	-0.223125
-9.028000	2.196000	1012.478027	-0.135625	0.420000	-0.262500
-8.784000	-11.224000	1020.103027	-0.345625	0.511875	-0.293125
-10.126000	8.357000	1014.125000	-0.376250	0.599375	-0.266875
-11.468000	-1.159000	1013.697998	-0.577500	0.853125	-0.358750
-11.590000	-2.196000	1016.931030	-0.336875	0.778750	-0.275625
-12.322001	-1.098000	1015.283997	-0.048125	0.529375	-0.196875
-5.551000	-0.366000	1016.869995	-0.175000	0.560000	-0.288750
-10.492001	6.161000	1015.528015	-0.240625	0.402500	-0.319375
-11.346000	0.549000	1015.283997	-0.358750	0.560000	-0.315000
-8.113000	-6.405000	1014.064026	-0.135625	0.568750	-0.288750
-10.614000	-0.183000	1014.918030	-0.323750	0.516250	-0.258125
-6.771000	1.708000	1014.307983	-0.485625	0.525000	-0.345625
-8.174000	-2.440000	1014.674011	-0.376250	0.560000	-0.210000
-10.980000	-1.830000	1015.283997	-0.113750	0.621250	-0.245000
-16.104000	-1.464000	1016.992004	-0.341250	0.520625	-0.328125
-3.660000	5.185000	1013.942017	-0.428750	0.463750	-0.428750
-4.514000	0.610000	1015.772034	-0.315000	0.437500	-0.310625
-12.261000	-5.307000	1019.127014	-0.157500	0.704375	-0.258125
-7.381000	-3.782000	1017.236023	-0.315000	0.533750	-0.306250
-5.978000	0.427000	1014.552002	-0.481250	0.455000	-0.301875
-9.882000	-0.488000	1017.296997	-0.350000	0.726250	-0.354375
-12.505000	1.952000	1016.626038	-0.315000	0.420000	-0.336875
-9.455000	-1.952000	1015.650024	-0.455000	0.564375	-0.266875
-8.906000	0.915000	1019.127014	-0.284375	0.831250	-0.310625
-10.492001	3.538000	1016.869995	-0.021875	0.415625	-0.297500
-10.858000	0.244000	1016.869995	-0.363125	0.581875	-0.266875
-13.298000	-4.636000	1016.869995	-0.210000	0.656250	-0.192500
-7.015000	-5.124000	1016.747986	-0.157500	0.546875	-0.249375
-10.614000	1.769000	1012.478027	-0.284375	0.511875	-0.236250
-6.893000	1.708000	1016.320984	-0.371875	0.420000	-0.236250
-8.601000	-2.318000	1016.747986	-0.437500	0.450625	-0.293125
-9.760000	3.233000	1016.015991	-0.122500	0.551250	-0.315000
-10.126000	-1.586000	1013.942017	-0.179375	0.350000	-0.328125
-9.394000	-5.612000	1014.429993	-0.161875	0.586250	-0.345625
-7.564000	-1.647000	1014.186035	-0.140000	0.568750	-0.280000
-10.126000	-1.220000	1015.406006	-0.345625	0.441875	-0.380625
-8.906000	1.159000	1014.186035	-0.301875	0.691250	-0.297500
-8.906000	-0.732000	1016.931030	-0.402500	0.498750	-0.275625
-12.566000	5.063000	1019.737000	-0.236250	0.608125	-0.249375
-8.235000	1.464000	1017.114014	-0.126875	0.691250	-0.280000
-12.749001	-5.368000	1016.504028	-0.201250	0.367500	-0.336875
-7.869000	-1.281000	1011.014038	-0.227500	0.437500	-0.332500
-11.468000	3.355000	1015.710999	-0.385000	0.735000	-0.358750
-8.479000	-0.854000	1018.151001	-0.113750	0.730625	-0.266875
-4.941000	-0.854000	1018.455994	-0.188125	0.520625	-0.319375
-8.540000	-4.392000	1015.406006	-0.336875	0.560000	-0.328125
-10.858000	1.403000	1017.114014	-0.271250	0.691250	-0.315000
-7.015000	3.965000	1018.822021	-0.231875	0.595000	-0.223125
-7.686000	-3.233000	1014.186035	-0.293125	0.546875	-0.341250
-7.076000	-4.209000	1013.820007	-0.437500	0.555625	-0.288750
-9.272000	-1.037000	1016.320984	0.013125	0.586250	-0.315000
-10.248000	1.159000	1017.480042	-0.214375	0.293125	-0.245000
-10.858000	-1.464000	1014.552002	-0.179375	0.525000	-0.196875
-2.745000	4.331000	1013.942017	-0.310625	0.778750	-0.245000
-10.309000	2.928000	1016.931030	-0.258125	0.739375	-0.293125
-7.015000	1.952000	1017.480042	-0.293125	0.573125	-0.350000
-11.224000	-2.318000	1017.968018	-0.411250	0.437500	-0.306250
-10.858000	-2.928000	1015.283997	-0.428750	0.455000	-0.323750
-7.503000	0.061000	1015.283997	-0.371875	0.717500	-0.266875
-9.150001	-3.172000	1016.626038	-0.354375	0.494375	-0.293125
-8.174000	5.063000	1014.552002	-0.511875	0.520625	-0.341250
-10.004000	-1.769000	1015.161987	-0.231875	0.791875	-0.341250
-7.381000	2.745000	1019.127014	-0.087500	0.581875	-0.319375
-7.686000	-4.331000	1013.270996	-0.231875	0.433125	-0.350000
-9.760000	1.891000	1017.906982	-0.284375	0.441875	-0.297500
-13.542000	0.122000	1016.015991	-0.196875	0.507500	-0.323750
-7.625000	0.366000	1015.528015	-0.170625	0.450625	-0.385000
-12.749001	-0.732000	1016.382019	-0.328125	0.441875	-0.262500
-11.529000	-0.122000	1013.270996	-0.236250	0.665000	-0.345625
-7.869000	-0.732000	1019.737000	-0.122500	0.638750	-0.271250
-10.980000	1.342000	1018.822021	-0.179375	0.538125	-0.271250
-8.906000	2.684000	1019.066040	-0.428750	0.551250	-0.245000
-9.272000	2.440000	1017.114014	-0.280000	0.678125	-0.297500
-6.405000	-5.307000	1015.528015	-0.437500	0.577500	-0.271250
-12.383000	-0.549000	1020.957031	-0.284375	0.450625	-0.293125
-6.283000	-2.562000	1014.369019	-0.188125	0.520625	-0.367500
-13.237000	-2.928000	1014.429993	-0.061250	0.555625	-0.293125
-9.699000	3.721000	1018.028992	0.004375	0.358750	-0.341250
-12.200000	-4.331000	1020.957031	-0.310625	0.371875	-0.315000
-12.322001	-3.172000	1017.968018	-0.144375	0.507500	-0.319375
-12.810000	0.671000	1017.114014	-0.109375	0.551250	-0.249375
-5.673000	0.488000	1015.772034	-0.122500	0.630000	-0.284375
-3.538000	0.122000	1017.114014	-0.210000	0.376250	-0.354375
-8.296000	-3.050000	1019.432007	0.008750	0.415625	-0.297500
-13.725000	8.540000	1015.161987	0.118125	0.380625	-0.179375
-15.250000	9.516000	1008.635010	-0.293125	0.533750	-0.021875
-6.161000	-8.174000	1010.403992	-0.336875	0.433125	-0.087500
-4.026000	-13.847000	1011.257996	-0.441875	0.665000	-0.271250
-7.259000	9.943000	1019.492981	-0.293125	0.621250	-0.249375
-6.954000	-2.867000	1020.041992	-0.275625	0.704375	-0.196875
-10.858000	-3.050000	1016.504028	-0.341250	0.665000	-0.210000
-7.991000	-5.124000	1014.552002	-0.201250	0.472500	-0.315000
-6.710000	9.028000	1012.356018	-0.070000	0.406875	-0.358750
-2.501000	7.808000	1019.249023	-0.310625	0.459375	-0.306250
-13.725000	-1.281000	1015.161987	-0.363125	0.638750	-0.175000
2.684000	-2.562000	1016.992004	-0.472500	1.019375	-0.253750
-6.527000	-3.416000	1014.064026	-0.367500	1.001875	-0.319375
-7.015000	0.122000	1013.332031	-0.656250	0.568750	-0.166250
-10.614000	-0.732000	1019.492981	-0.433125	0.791875	-0.288750
-5.185000	-0.854000	1023.153015	-0.323750	0.739375	-0.196875
-7.808000	4.331000	1028.643066	-0.188125	0.533750	-0.271250
-8.906000	3.050000	1019.981018	-0.258125	0.424375	-0.336875
-9.394000	2.440000	1020.895996	-0.236250	0.612500	-0.345625
-7.442000	-0.488000	1021.018005	-0.013125	0.660625	-0.288750
-7.320000	-1.830000	1014.247009	-0.004375	0.494375	-0.293125
-10.248000	5.673000	1018.273010	-0.013125	0.336875	-0.301875
-17.141001	3.172000	1012.661011	-0.201250	0.564375	-0.210000
-8.845000	-0.244000	1016.809021	-0.472500	0.568750	-0.323750
-7.076000	-0.610000	1013.332031	-0.437500	0.704375	-0.266875
-16.287001	1.708000	1011.867981	-0.476875	0.678125	-0.266875
-11.163000	4.087000	1014.856995	-0.336875	0.883750	-0.240625
-8.357000	-0.488000	1013.088013	-0.192500	0.533750	-0.301875
-5.551000	-2.562000	1015.406006	-0.065625	0.367500	-0.345625
-11.529000	2.623000	1016.992004	-0.100625	0.546875	-0.393750
-12.322001	4.514000	1013.088013	-0.126875	0.586250	-0.293125
-8.967000	0.610000	1013.820007	-0.087500	0.599375	-0.188125
-11.590000	-3.904000	1013.697998	-0.231875	0.573125	-0.350000
-11.102000	3.843000	1012.966003	-0.249375	0.805000	-0.284375
-5.673000	5.246000	1010.648010	-0.284375	0.616875	-0.288750
-3.782000	1.952000	1020.713013	-0.284375	0.577500	-0.210000
-14.945000	-0.488000	1015.528015	-0.271250	0.490000	-0.245000
-11.285000	0.854000	1014.186035	-0.363125	0.568750	-0.336875
-10.614000	0.854000	1015.650024	-0.328125	0.538125	-0.310625
-5.063000	1.220000	1016.260010	-0.420000	0.581875	-0.253750
-9.638000	-2.074000	1016.869995	-0.424375	0.660625	-0.210000
-12.322001	-1.098000	1016.504028	-0.293125	0.726250	-0.275625
-4.941000	0.610000	1015.955017	-0.126875	0.581875	-0.433125
-10.370000	3.965000	1013.210022	-0.096250	0.275625	-0.371875
-7.259000	0.732000	1011.989990	-0.468125	0.586250	-0.336875
-7.198000	1.708000	1012.234009	-0.371875	0.713125	-0.371875
-8.540000	2.440000	1018.028992	-0.420000	0.564375	-0.288750
-7.076000	-4.209000	1016.260010	-0.555625	0.380625	-0.253750
-11.956000	-1.647000	1020.346985	-0.446250	0.595000	-0.310625
-13.176001	5.551000	1020.286011	-0.293125	0.498750	-0.301875
-6.161000	-0.915000	1019.066040	-0.367500	0.533750	-0.231875
-4.026000	-2.440000	1009.976990	-0.183750	0.463750	-0.284375
-6.161000	-1.708000	1012.661011	-0.126875	0.463750	-0.293125
-9.272000	1.525000	1012.600037	-0.131250	0.332500	-0.271250
-8.418000	-1.586000	1017.053040	-0.415625	0.608125	-0.293125
-5.673000	-2.074000	1013.697998	-0.306250	0.743750	-0.336875
-9.028000	3.599000	1017.174988	-0.354375	0.516250	-0.336875
-8.052000	1.586000	1017.723999	-0.450625	0.608125	-0.371875
-13.847000	3.538000	1016.138000	-0.341250	0.787500	-0.358750
-10.919000	0.244000	1018.333984	-0.043750	0.704375	-0.297500
-12.566000	-1.830000	1015.040039	-0.262500	0.555625	-0.293125
-10.797000	-0.061000	1017.601990	-0.245000	0.603750	-0.380625
-6.283000	5.429000	1016.869995	-0.433125	0.905625	-0.323750
-8.418000	-4.209000	1015.406006	-0.236250	0.818125	-0.258125
-11.468000	-0.793000	1019.859009	-0.306250	0.634375	-0.258125
-7.015000	0.488000	1017.236023	-0.450625	0.835625	-0.280000
-9.272000	2.684000	1015.528015	-0.498750	0.783125	-0.332500
-14.823000	-1.464000	1013.210022	-0.258125	0.533750	-0.297500
-11.773000	-2.806000	1015.528015	-0.323750	0.651875	-0.284375
-13.908000	-3.294000	1017.114014	-0.245000	0.691250	-0.253750
-6.649000	1.281000	1015.650024	-0.201250	0.783125	-0.284375
-10.614000	2.867000	1012.905029	-0.345625	0.564375	-0.315000
-11.834001	3.782000	1015.345032	-0.323750	0.708750	-0.371875
-7.869000	1.220000	1017.114014	-0.179375	0.638750	-0.297500
-14.701000	-2.806000	1018.822021	-0.258125	0.406875	-0.371875
-9.455000	1.891000	1016.015991	-0.310625	0.376250	-0.275625
-7.198000	1.830000	1015.406006	-0.284375	0.472500	-0.245000
-5.856000	-2.318000	1014.674011	-0.389375	0.739375	-0.236250
-10.614000	-1.342000	1016.747986	-0.551250	0.713125	-0.262500
-9.150001	-1.830000	1018.882996	-0.411250	0.516250	-0.218750
-11.346000	1.586000	1014.674011	-0.201250	0.861875	-0.328125
-7.137000	3.416000	1015.893982	-0.367500	0.568750	-0.236250
-10.736000	2.318000	1017.601990	-0.153125	0.323750	-0.223125
-7.625000	-0.610000	1017.601990	-0.371875	0.682500	-0.376250
-10.370000	1.830000	1016.138000	-0.205625	0.494375	-0.306250
-12.688000	3.782000	1013.942017	-0.144375	0.310625	-0.393750
-9.577000	6.405000	1016.015991	-0.196875	0.463750	-0.310625
-13.542000	5.002000	1016.747986	-0.245000	0.673750	-0.323750
-14.640000	2.440000	1016.747986	-0.315000	0.608125	-0.288750
-9.211000	5.551000	1017.114014	-0.463750	0.511875	-0.306250
-9.272000	0.976000	1014.674011	-0.266875	0.301875	-0.249375
-5.429000	1.098000	1017.906982	-0.341250	0.634375	-0.284375
-13.603000	1.952000	1018.822021	-0.258125	0.756875	-0.319375
-8.113000	4.514000	1018.090027	-0.301875	0.538125	-0.253750
-8.296000	0.000000	1016.015991	-0.332500	0.529375	-0.275625
-11.712000	2.806000	1016.504028	-0.293125	0.612500	-0.266875
-6.283000	1.464000	1013.454041	-0.371875	0.678125	-0.236250
-20.007999	-1.952000	1017.663025	-0.406875	0.476875	-0.306250
-11.163000	-1.098000	1015.040039	-0.415625	0.595000	-0.301875
-9.272000	-0.976000	1016.138000	-0.188125	0.555625	-0.293125
-11.956000	-5.734000	1013.942017	-0.437500	0.507500	-0.227500
-6.893000	-5.002000	1017.541016	-0.516250	0.656250	-0.323750
-7.198000	15.555000	1021.567017	-0.323750	0.621250	-0.323750
-7.930000	6.771000	1014.856995	-0.214375	0.376250	-0.201250
-9.882000	-12.322001	1020.713013	-0.218750	0.463750	-0.131250
-11.102000	-1.098000	1015.833008	-0.385000	0.485625	-0.328125
-10.126000	4.575000	1018.395020	-0.284375	0.752500	-0.293125
-4.453000	7.137000	1016.626038	-0.306250	0.717500	-0.345625
0.549000	-2.257000	1014.674011	-0.201250	0.603750	-0.310625
-10.858000	2.379000	1014.186035	-0.336875	0.577500	-0.424375
-3.111000	7.991000	1016.260010	-0.354375	0.586250	-0.437500
-6.344000	7.320000	1015.893982	-0.380625	0.761250	-0.258125
-9.882000	1.952000	1016.869995	-0.468125	0.682500	-0.048125
-8.418000	-7.259000	1018.090027	-0.249375	0.490000	-0.205625
-8.296000	1.525000	1018.700012	-0.450625	0.564375	-0.350000
-6.710000	7.747000	1018.700012	-0.315000	0.542500	-0.306250
-7.686000	4.758000	1014.429993	-0.205625	0.669375	-0.227500
-5.002000	-1.037000	1017.663025	-0.166250	0.625625	-0.262500
-14.579000	-2.196000	1017.358032	-0.319375	0.341250	-0.218750
-11.224000	2.867000	1014.064026	-0.463750	0.441875	-0.358750
-5.551000	-0.854000	1016.260010	-0.214375	0.673750	-0.231875
-10.370000	1.342000	1019.614990	0.013125	0.476875	-0.214375
-3.111000	-2.562000	1014.796021	-0.245000	0.577500	-0.258125
-6.832000	-0.732000	1014.064026	-0.376250	0.686875	-0.350000
-9.150001	-1.342000	1013.454041	-0.463750	0.463750	-0.376250
-2.501000	5.551000	1020.346985	-0.428750	0.354375	-0.363125
-8.967000	-1.403000	1014.002991	-0.240625	0.555625	-0.310625
-7.930000	-2.196000	1015.283997	-0.100625	0.634375	-0.315000
-5.795000	1.342000	1011.867981	-0.494375	0.511875	-0.332500
-5.978000	3.294000	1013.088013	-0.468125	0.660625	-0.192500
-10.492001	-4.941000	1016.565002	-0.271250	0.695625	-0.275625
-5.795000	-0.183000	1016.626038	-0.271250	0.638750	-0.258125
-11.041000	0.488000	1013.210022	-0.345625	0.595000	-0.249375
-7.991000	0.732000	1018.639038	-0.406875	0.914375	-0.231875
-5.978000	0.488000	1018.822021	-0.367500	0.735000	-0.323750
-4.880000	-0.854000	1017.968018	-0.275625	0.507500	-0.323750
-10.919000	-2.196000	1015.893982	-0.420000	0.393750	-0.288750
-7.869000	1.525000	1017.723999	-0.354375	0.424375	-0.358750
-8.479000	0.732000	1014.186035	-0.315000	0.756875	-0.297500
-5.856000	0.488000	1019.614990	-0.205625	0.463750	-0.262500
-7.686000	2.684000	1017.723999	-0.161875	0.476875	-0.245000
-10.858000	-2.684000	1010.343018	-0.131250	0.612500	-0.253750
-14.030000	-0.061000	1018.028992	-0.275625	0.568750	-0.345625
-11.712000	-0.488000	1015.528015	-0.393750	0.463750	-0.350000
-11.834001	-4.880000	1017.785034	-0.363125	0.621250	-0.284375
-9.455000	0.183000	1016.992004	-0.367500	0.481250	-0.398125
-8.418000	5.551000	1016.992004	-0.437500	0.651875	-0.328125
-10.126000	-1.586000	1016.015991	-0.511875	0.350000	-0.245000
-5.063000	1.891000	1015.650024	-0.385000	0.533750	-0.354375
-10.126000	1.098000	1015.406006	-0.205625	0.665000	-0.363125
-8.052000	0.244000	1013.210022	-0.258125	0.538125	-0.323750
-9.638000	-2.684000	1016.687012	-0.345625	0.713125	-0.350000
-9.516000	4.087000	1019.859009	-0.315000	0.511875	-0.306250
-11.712000	-2.013000	1015.040039	-0.236250	0.568750	-0.201250
-15.860001	-1.464000	1016.626038	-0.459375	0.621250	-0.306250
-11.041000	1.281000	1018.700012	-0.363125	0.590625	-0.328125
-10.248000	4.453000	1016.260010	-0.494375	0.791875	-0.341250
-6.222000	2.135000	1014.307983	-0.280000	0.450625	-0.380625
-7.076000	-3.721000	1015.406006	-0.183750	0.573125	-0.288750
-8.540000	3.965000	1017.906982	-0.205625	0.805000	-0.210000
-9.760000	3.050000	1015.772034	-0.393750	0.752500	-0.223125
-8.174000	0.488000	1016.992004	-0.415625	0.494375	-0.293125
-7.686000	3.721000	1013.088013	-0.420000	0.577500	-0.236250
-5.124000	5.124000	1017.663025	-0.245000	0.726250	-0.245000
-10.370000	-3.843000	1016.015991	-0.306250	0.739375	-0.245000
-8.906000	-0.183000	1017.236023	-0.140000	0.761250	-0.332500
-6.405000	-4.453000	1015.893982	-0.231875	0.437500	-0.271250
-9.272000	-0.427000	1011.380005	-0.385000	0.529375	-0.271250
-9.150001	0.122000	1015.467041	-0.240625	0.686875	-0.323750
-9.028000	0.732000	1015.283997	-0.262500	0.656250	-0.284375
-13.298000	4.331000	1017.236023	-0.153125	0.546875	-0.284375
-10.736000	-1.525000	1017.968018	-0.463750	0.568750	-0.170625
-4.697000	-0.244000	1016.504028	-0.472500	0.612500	-0.345625
-7.198000	3.599000	1017.236023	-0.323750	0.603750	-0.275625
-6.466000	0.488000	1019.859009	-0.459375	0.490000	-0.266875
-12.139000	-4.514000	1019.676025	-0.275625	0.669375	-0.240625
-6.527000	-0.915000	1017.236023	-0.240625	0.476875	-0.297500
-6.588000	1.098000	1015.040039	-0.367500	0.498750	-0.319375
-4.026000	1.098000	1020.468994	-0.455000	0.669375	-0.249375
-11.407001	0.976000	1013.759033	-0.166250	0.651875	-0.288750
-12.810000	-1.952000	1017.419006	-0.201250	0.704375	-0.236250
-10.431000	1.037000	1016.015991	-0.380625	0.581875	-0.271250
-2.745000	-0.366000	1016.626038	-0.319375	0.393750	-0.306250
-11.773000	0.488000	1015.161987	-0.026250	0.678125	-0.332500
-8.601000	3.233000	1014.918030	-0.096250	0.507500	-0.323750
-6.100000	-0.305000	1013.332031	-0.126875	0.463750	-0.315000
-8.906000	-2.928000	1019.737000	-0.249375	0.586250	-0.214375
-7.808000	5.429000	1018.333984	-0.227500	0.560000	-0.288750
-9.638000	4.758000	1018.455994	-0.393750	0.520625	-0.319375
-11.712000	2.440000	1018.212036	-0.363125	0.708750	-0.201250
-9.211000	-3.111000	1013.088013	-0.188125	0.275625	-0.170625
-8.784000	-3.416000	1016.077026	-0.345625	0.424375	-0.293125
-9.272000	7.686000	1015.893982	-0.406875	0.783125	-0.358750
-7.320000	5.368000	1015.040039	-0.328125	0.551250	-0.227500
-8.174000	-4.087000	1014.429993	-0.218750	0.511875	-0.280000
-8.296000	0.061000	1013.575989	-0.420000	0.634375	-0.411250
-10.004000	8.967000	1011.867981	-0.301875	0.538125	-0.380625
-6.283000	2.135000	1017.663025	-0.297500	0.503125	-0.266875
-10.614000	0.732000	1018.944031	-0.336875	0.721875	-0.218750
-10.736000	-0.854000	1017.846008	-0.293125	0.713125	-0.341250
-7.991000	-1.952000	1018.578003	-0.253750	0.533750	-0.275625
-9.150001	-0.366000	1018.333984	-0.393750	0.350000	-0.376250
-13.054000	-1.464000	1016.015991	-0.280000	0.586250	-0.350000
-10.553000	0.610000	1015.893982	-0.175000	0.389375	-0.328125
-5.185000	6.649000	1014.918030	-0.402500	0.345625	-0.301875
-6.405000	0.488000	1012.600037	-0.078750	0.573125	-0.275625
-8.052000	-3.050000	1019.005005	-0.113750	0.590625	-0.262500
-9.028000	-1.464000	1016.260010	-0.310625	0.380625	-0.293125
-13.786000	4.331000	1016.504028	-0.398125	0.673750	-0.245000
-11.285000	3.050000	1012.112000	-0.332500	0.630000	-0.214375
-9.638000	1.830000	1014.979004	-0.240625	0.503125	-0.245000
-14.518001	3.172000	1016.504028	-0.380625	0.525000	-0.494375
-13.664001	42.517002	1057.618042	0.686875	0.581875	7.275625
27.328001	32.390999	906.155029	0.113750	0.765625	4.571875
11.224000	31.964001	1017.419006	-0.612500	0.376250	6.260625
-18.544001	24.583000	1008.513000	0.748125	0.577500	1.343125
-13.603000	2.989000	1019.066040	0.083125	0.345625	0.109375
-9.089000	-0.122000	1016.015991	-0.441875	0.625625	-0.284375
-8.784000	2.745000	1015.650024	-0.253750	0.778750	-0.231875
-6.954000	-3.355000	1015.772034	-0.271250	0.498750	-0.328125
-9.150001	-1.037000	1015.283997	-0.271250	0.441875	-0.376250
-10.370000	10.736000	1014.552002	-0.236250	0.450625	-0.284375
-10.858000	2.379000	1017.785034	-0.175000	0.450625	-0.293125
-9.150001	0.488000	1017.601990	-0.328125	0.511875	-0.336875
-7.808000	1.708000	1013.088013	-0.245000	0.669375	-0.297500
-5.307000	1.342000	1014.796021	-0.310625	0.424375	-0.323750
-8.662000	0.854000	1018.273010	-0.341250	0.511875	-0.301875
-7.686000	-3.050000	1018.700012	-0.183750	0.595000	-0.350000
-7.198000	-2.318000	1014.918030	-0.306250	0.525000	-0.393750
-12.078000	1.037000	1015.161987	-0.406875	0.555625	-0.446250
-8.601000	5.429000	1016.260010	-0.236250	0.634375	-0.358750
-5.978000	1.708000	1012.478027	-0.179375	0.656250	-0.301875
-9.638000	-2.440000	1013.454041	-0.406875	0.455000	-0.393750
-7.381000	0.610000	1016.747986	-0.306250	0.678125	-0.140000
-9.394000	9.333000	1019.249023	-0.310625	0.573125	-0.196875
-7.076000	5.978000	1014.918030	-0.271250	0.446250	-0.319375
-13.115000	-6.161000	1016.382019	-0.262500	0.577500	-0.249375
-6.771000	-1.769000	1017.968018	-0.039375	0.651875	-0.319375
-5.246000	4.209000	1015.406006	-0.048125	0.446250	-0.249375
-8.540000	2.196000	1016.992004	-0.004375	0.310625	-0.288750
-7.930000	-1.464000	1010.587036	-0.490000	0.503125	-0.293125
-12.444000	2.379000	1017.419006	-0.393750	0.835625	-0.240625
-6.649000	6.039000	1018.700012	-0.175000	0.700000	-0.218750
-13.725000	0.244000	1015.283997	-0.227500	0.656250	-0.231875
-11.712000	0.854000	1017.114014	-0.319375	0.498750	-0.315000
-11.224000	1.342000	1016.382019	-0.380625	0.581875	-0.280000
-13.054000	1.220000	1017.968018	-0.135625	0.446250	-0.315000
-9.089000	2.562000	1018.212036	-0.288750	0.494375	-0.328125
-10.248000	2.318000	1014.674011	-0.437500	0.511875	-0.319375
-6.283000	3.538000	1016.747986	-0.210000	0.586250	-0.301875
-9.760000	-0.244000	1018.578003	-0.188125	0.301875	-0.332500
-2.745000	2.013000	1015.283997	-0.280000	0.389375	-0.275625
-12.993000	0.000000	1016.504028	-0.446250	0.520625	-0.293125
-11.590000	-5.734000	1017.480042	-0.455000	0.866250	-0.385000
-11.346000	3.233000	1023.153015	-0.170625	0.516250	-0.315000
-10.004000	0.244000	1015.588989	-0.166250	0.354375	-0.310625
-9.028000	5.307000	1017.358032	-0.315000	0.415625	-0.297500
-8.174000	2.318000	1013.820007	-0.293125	0.446250	-0.266875
-9.272000	0.122000	1014.429993	-0.284375	0.529375	-0.306250
-9.760000	-1.098000	1018.395020	-0.196875	0.691250	-0.293125
-6.527000	-1.586000	1014.796021	-0.288750	0.595000	-0.345625
-11.590000	-0.244000	1017.785034	-0.336875	0.516250	-0.336875
-11.956000	-2.623000	1013.820007	-0.402500	0.796250	-0.301875
-11.346000	-1.952000	1014.429993	-0.332500	0.721875	-0.284375
-9.394000	1.525000	1015.772034	-0.380625	0.560000	-0.275625
-8.662000	4.331000	1014.064026	-0.428750	0.726250	-0.249375
-15.921000	4.880000	1015.406006	-0.175000	0.516250	-0.280000
-6.405000	-0.305000	1014.429993	-0.126875	0.319375	-0.358750
-3.721000	1.708000	1017.296997	-0.354375	0.227500	-0.315000
-12.017000	0.244000	1018.333984	-0.271250	0.599375	-0.223125
-7.747000	1.708000	1019.187988	-0.048125	0.542500	-0.301875
-13.115000	-3.538000	1012.905029	-0.249375	0.586250	-0.258125
-6.039000	0.366000	1018.455994	-0.161875	0.507500	-0.406875
-13.359000	-1.098000	1018.090027	-0.183750	0.686875	-0.402500
-6.405000	-0.854000	1018.212036	-0.135625	0.560000	-0.275625
-7.198000	2.379000	1015.893982	-0.026250	0.647500	-0.175000
-8.540000	5.795000	1018.760986	-0.280000	0.481250	-0.201250
-10.004000	-1.159000	1014.307983	-0.424375	0.367500	-0.266875
-9.150001	0.000000	1013.697998	-0.196875	0.538125	-0.341250
-10.248000	0.854000	1015.650024	-0.135625	0.721875	-0.293125
-8.052000	-0.244000	1015.772034	-0.157500	0.603750	-0.201250
-10.980000	4.697000	1013.697998	-0.231875	0.551250	-0.328125
-11.590000	1.586000	1016.931030	-0.323750	0.367500	-0.253750
-12.932000	0.732000	1014.064026	-0.433125	0.595000	-0.319375
-10.187000	-1.220000	1020.468994	-0.450625	0.665000	-0.284375
-6.283000	-0.122000	1015.893982	-0.336875	0.586250	-0.266875
-6.222000	3.355000	1013.332031	-0.192500	0.402500	-0.284375
-12.749001	3.538000	1014.186035	-0.280000	0.398125	-0.328125
-8.845000	-0.366000	1016.382019	-0.293125	0.568750	-0.328125
-8.296000	5.795000	1014.307983	-0.196875	0.595000	-0.284375
-10.614000	-1.403000	1015.650024	-0.271250	0.581875	-0.280000
-10.370000	0.122000	1013.942017	-0.376250	0.546875	-0.380625
-7.930000	5.429000	1014.674011	-0.315000	0.380625	-0.258125
-4.209000	-2.013000	1014.796021	-0.354375	0.371875	-0.210000
-13.603000	-6.222000	1014.064026	-0.367500	0.428750	-0.293125
-7.015000	-1.037000	1016.138000	-0.148750	0.555625	-0.406875
-10.858000	0.854000	1015.283997	-0.201250	0.533750	-0.262500
-9.272000	3.355000	1015.893982	-0.175000	0.420000	-0.306250
-10.736000	1.342000	1014.552002	-0.188125	0.643125	-0.284375
-12.566000	-3.294000	1014.674011	-0.113750	0.669375	-0.218750
-12.078000	1.891000	1013.575989	-0.126875	0.599375	-0.223125
-8.784000	3.294000	1015.528015	-0.398125	0.393750	-0.293125
-5.917000	-0.488000	1016.015991	-0.323750	0.371875	-0.306250
-12.505000	-3.538000	1012.600037	-0.236250	0.376250	-0.297500
-6.649000	3.355000	1015.833008	-0.227500	0.573125	-0.336875
-5.856000	-2.379000	1018.212036	-0.144375	0.621250	-0.363125
-13.603000	4.941000	1016.015991	-0.297500	0.564375	-0.385000
-7.625000	-3.843000	1010.343018	-0.441875	0.573125	-0.354375
-11.346000	0.793000	1015.710999	-0.157500	0.634375	-0.323750
-10.004000	-3.538000	1012.600037	-0.131250	0.577500	-0.323750
-10.126000	0.122000	1016.747986	-0.135625	0.415625	-0.288750
-13.908000	1.098000	1013.697998	-0.183750	0.595000	-0.245000
-12.322001	5.673000	1017.419006	-0.319375	0.678125	-0.284375
-8.113000	0.854000	1017.968018	-0.170625	0.455000	-0.367500
-11.834001	1.830000	1012.783020	-0.328125	0.293125	-0.341250
-6.649000	-0.488000	1017.419006	-0.380625	0.555625	-0.319375
-8.296000	2.013000	1013.697998	-0.153125	0.695625	-0.249375
-10.736000	-1.952000	1014.429993	-0.293125	0.603750	-0.306250
-6.649000	-1.708000	1015.772034	-0.389375	0.538125	-0.275625
-10.004000	2.623000	1018.760986	-0.245000	0.573125	-0.245000
-6.832000	-1.586000	1015.772034	-0.371875	0.315000	-0.319375
-9.394000	0.488000	1016.015991	-0.253750	0.660625	-0.323750
-9.394000	-0.244000	1014.674011	-0.135625	0.708750	-0.301875
-7.930000	0.122000	1012.966003	-0.179375	0.700000	-0.284375
-8.662000	6.039000	1019.249023	-0.301875	0.538125	-0.288750
-8.296000	-1.281000	1015.406006	-0.262500	0.284375	-0.266875
-7.442000	-0.610000	1016.138000	-0.520625	0.411250	-0.262500
-7.442000	2.989000	1015.406006	-0.490000	0.608125	-0.350000
-5.612000	6.039000	1004.853027	-0.205625	0.713125	-0.336875
-3.965000	-4.148000	1013.820007	-0.105000	0.542500	-0.389375
-9.394000	2.867000	1015.406006	-0.301875	0.385000	-0.262500
-12.200000	10.553000	1014.918030	-0.411250	0.476875	-0.315000
-7.503000	-0.183000	1014.796021	-0.240625	0.765625	-0.245000
-7.442000	-3.660000	1020.713013	-0.210000	0.546875	-0.258125
-10.736000	-7.442000	1023.640991	-0.140000	0.459375	-0.275625
-12.322001	-1.403000	1016.687012	-0.240625	0.389375	-0.441875
-4.941000	5.673000	1018.882996	-0.363125	0.560000	-0.341250
-7.930000	2.928000	1013.148987	-0.393750	0.634375	-0.297500
-12.322001	-2.501000	1013.697998	-0.319375	0.441875	-0.341250
-9.699000	-1.342000	1013.454041	-0.205625	0.625625	-0.389375
-4.087000	2.623000	1013.575989	-0.078750	0.673750	-0.350000
-8.540000	8.235000	1024.921997	0.039375	0.481250	-0.236250
-9.760000	1.769000	1014.491028	-0.258125	0.371875	-0.188125
-6.649000	-6.161000	1014.186035	-0.328125	0.271250	-0.240625
-6.222000	0.915000	1015.650024	-0.441875	0.730625	-0.389375
-6.588000	3.843000	1017.114014	-0.210000	0.573125	-0.376250
-12.383000	5.978000	1014.064026	-0.345625	0.406875	-0.328125
-12.810000	-1.037000	1015.893982	-0.455000	0.555625	-0.262500
-10.980000	-6.466000	1016.992004	-0.420000	0.542500	-0.205625
-6.344000	2.135000	1015.528015	-0.293125	0.647500	-0.411250
-8.052000	5.551000	1015.528015	-0.210000	0.568750	-0.227500
-10.370000	1.708000	1015.893982	-0.214375	0.529375	-0.196875
-7.930000	-6.649000	1013.697998	-0.310625	0.590625	-0.376250
-11.102000	0.915000	1015.283997	-0.236250	0.450625	-0.332500
-6.893000	-1.342000	1011.257996	-0.332500	0.297500	-0.315000
-7.930000	2.989000	1016.442993	-0.249375	0.511875	-0.249375
-6.710000	2.806000	1017.480042	-0.188125	0.700000	-0.236250
-7.808000	-3.111000	1016.504028	-0.223125	0.586250	-0.245000
-6.283000	4.758000	1014.674011	-0.179375	0.616875	-0.420000
-7.930000	6.466000	1015.040039	-0.240625	0.498750	-0.262500
-6.954000	4.270000	1012.843994	-0.393750	0.275625	-0.183750
-13.603000	-1.891000	1015.833008	-0.503125	0.581875	-0.205625
-16.592001	1.281000	1015.040039	-0.371875	0.743750	-0.223125
-5.612000	0.488000	1017.358032	-0.258125	0.770000	-0.245000
-6.100000	4.453000	1014.186035	-0.087500	0.555625	-0.284375
-13.969000	-0.122000	1029.802002	-0.091875	0.468125	-0.293125
-13.176001	-0.366000	1016.504028	-0.420000	0.507500	-0.301875
-15.616000	-1.464000	1009.611023	-0.463750	0.910000	-0.297500
-11.590000	5.185000	1013.515015	-0.131250	0.428750	-0.284375
-9.760000	-0.305000	1014.674011	-0.275625	0.371875	-0.371875
-11.834001	1.708000	1025.287964	-0.319375	0.581875	-0.240625
-10.248000	0.976000	1015.223022	-0.240625	0.721875	-0.262500
-10.858000	0.366000	1015.406006	-0.196875	0.389375	-0.310625
-7.259000	-0.732000	1012.234009	-0.310625	0.476875	-0.284375
-10.126000	-4.514000	1018.151001	-0.306250	0.774375	-0.262500
-12.444000	-0.915000	1016.626038	-0.446250	0.643125	-0.258125
-11.346000	-2.318000	1011.014038	-0.420000	0.428750	-0.363125
-7.503000	1.769000	1018.455994	-0.398125	0.503125	-0.371875
-3.111000	-1.952000	1014.429993	-0.476875	0.630000	-0.280000
-8.296000	-2.806000	1020.591003	-0.376250	0.520625	-0.240625
-8.784000	-0.732000	1016.504028	-0.214375	0.301875	-0.310625
-11.224000	-3.538000	1016.747986	-0.441875	0.560000	-0.275625
-6.893000	5.551000	1015.772034	-0.358750	0.647500	-0.293125
-9.028000	2.928000	1015.161987	-0.201250	0.726250	-0.297500
-9.028000	3.172000	1011.867981	-0.306250	0.468125	-0.297500
-11.834001	2.440000	1013.332031	-0.476875	0.511875	-0.280000
-7.991000	-1.830000	1014.429993	-0.389375	0.573125	-0.315000
-4.087000	7.503000	1012.721985	-0.345625	0.507500	-0.310625
-11.041000	4.514000	1013.942017	-0.328125	0.411250	-0.266875
-11.956000	-5.795000	1014.918030	-0.455000	0.393750	-0.306250
-11.590000	-3.904000	1014.307983	-0.240625	0.621250	-0.262500
-4.697000	0.427000	1017.541016	-0.223125	0.459375	-0.275625
-5.368000	2.318000	1014.307983	-0.503125	0.503125	-0.323750
-11.651000	-1.708000	1014.918030	-0.389375	0.621250	-0.262500
-9.455000	0.732000	1014.186035	-0.210000	0.490000	-0.223125
-7.808000	-2.318000	1018.639038	-0.424375	0.630000	-0.310625
-10.370000	3.538000	1015.161987	-0.157500	0.455000	-0.315000
-6.527000	1.098000	1019.005005	-0.319375	0.389375	-0.293125
-10.736000	2.928000	1015.528015	-0.306250	0.315000	-0.275625
-7.625000	-1.586000	1017.723999	-0.218750	0.551250	-0.310625
-8.784000	0.854000	1016.869995	-0.170625	0.599375	-0.319375
-6.832000	1.098000	1016.869995	-0.280000	0.280000	-0.275625
-7.076000	3.660000	1017.480042	-0.258125	0.170625	-0.293125
-5.002000	2.806000	1017.601990	-0.380625	0.608125	-0.188125
-12.383000	-1.220000	1015.161987	-0.332500	0.638750	-0.323750
-14.152000	4.087000	1012.478027	-0.315000	0.463750	-0.323750
-8.662000	4.331000	1015.710999	-0.398125	0.560000	-0.284375
-9.272000	0.244000	1015.283997	-0.288750	0.691250	-0.227500
-5.307000	-0.488000	1011.624023	-0.043750	0.608125	-0.245000
-9.638000	1.830000	1017.296997	-0.332500	0.459375	-0.310625
-10.980000	4.209000	1014.552002	-0.406875	0.546875	-0.345625
-8.601000	0.366000	1017.174988	-0.183750	0.625625	-0.411250
-5.063000	-0.244000	1017.723999	-0.367500	0.651875	-0.398125
-7.442000	-1.586000	1016.747986	-0.350000	0.498750	-0.227500
-4.209000	1.037000	1018.212036	-0.341250	0.573125	-0.319375
-9.760000	5.307000	1014.552002	-0.166250	0.525000	-0.236250
-9.760000	-0.305000	1014.674011	-0.083125	0.371875	-0.245000
-8.418000	-3.050000	1016.504028	-0.450625	0.643125	-0.262500
-9.882000	-0.427000	1017.723999	-0.350000	0.713125	-0.433125
-8.540000	1.342000	1015.406006	-0.301875	0.616875	-0.354375
-5.978000	0.488000	1016.504028	-0.293125	0.420000	-0.336875
-13.359000	-1.098000	1018.090027	-0.284375	0.476875	-0.245000
-8.967000	-2.562000	1014.064026	-0.455000	0.603750	-0.280000
-8.418000	-2.928000	1018.028992	-0.306250	0.796250	-0.301875
-15.067000	1.281000	1015.772034	-0.118125	0.665000	-0.293125
-11.346000	-0.244000	1013.454041	-0.542500	0.520625	-0.336875
-10.248000	3.965000	1017.663025	-0.498750	0.459375	-0.315000
-13.176001	5.734000	1017.358032	-0.345625	0.590625	-0.371875
-6.161000	3.416000	1017.358032	-0.341250	0.586250	-0.358750
-11.468000	3.538000	1018.944031	-0.459375	0.507500	-0.306250
-10.370000	-2.135000	1018.578003	-0.284375	0.691250	-0.179375
-10.614000	4.819000	1014.307983	-0.240625	0.590625	-0.214375
-11.468000	-1.403000	1015.893982	-0.402500	0.560000	-0.354375
-8.906000	2.379000	1016.992004	-0.284375	0.472500	-0.266875
-5.002000	2.074000	1014.429993	-0.210000	0.634375	-0.376250
-8.662000	1.342000	1014.429993	-0.503125	0.630000	-0.253750
-9.882000	-5.063000	1015.283997	-0.376250	0.568750	-0.214375
-9.394000	-2.135000	1017.601990	-0.336875	0.612500	-0.319375
-4.209000	0.061000	1015.040039	-0.280000	0.621250	-0.371875
-9.516000	-1.220000	1017.236023	-0.455000	0.507500	-0.227500
-8.174000	1.037000	1013.820007	-0.306250	0.560000	-0.306250
-7.198000	-3.416000	1014.307983	-0.284375	0.568750	-0.293125
-12.200000	0.305000	1016.747986	-0.450625	0.529375	-0.284375
-8.113000	2.440000	1019.981018	-0.354375	0.494375	-0.271250
-9.882000	2.196000	1016.504028	-0.376250	0.608125	-0.218750
-10.004000	0.122000	1015.406006	-0.218750	0.660625	-0.310625
-9.150001	0.366000	1013.820007	-0.214375	0.756875	-0.288750
-6.954000	-3.172000	1012.356018	-0.275625	0.599375	-0.336875
-11.834001	1.525000	1013.088013	-0.354375	0.481250	-0.280000
-13.054000	0.366000	1013.454041	-0.188125	0.516250	-0.350000
-8.235000	0.000000	1018.882996	-0.280000	0.700000	-0.406875
-6.832000	1.830000	1018.333984	-0.153125	0.630000	-0.371875
-10.370000	2.440000	1020.530029	-0.319375	0.490000	-0.345625
-12.200000	0.122000	1015.955017	-0.485625	0.560000	-0.315000
-4.819000	0.122000	1016.504028	-0.275625	0.546875	-0.345625
-13.847000	2.867000	1016.626038	-0.188125	0.743750	-0.363125
-11.285000	3.294000	1015.161987	0.074375	0.398125	-0.240625
-7.869000	0.000000	1015.283997	-0.249375	0.424375	-0.227500
-9.516000	-0.854000	1015.161987	-0.231875	0.463750	-0.345625
-12.810000	4.819000	1014.552002	-0.306250	0.603750	-0.354375
-11.224000	1.464000	1016.809021	-0.468125	0.546875	-0.284375
-7.869000	4.087000	1017.114014	-0.568750	0.761250	-0.231875
-9.028000	2.074000	1013.088013	-0.271250	0.481250	-0.315000
-6.405000	3.538000	1017.663025	-0.446250	0.595000	-0.288750
-5.612000	0.244000	1016.382019	-0.306250	0.844375	-0.367500
-5.734000	-0.976000	1017.601990	-0.201250	0.590625	-0.315000
-8.540000	0.000000	1016.992004	-0.376250	0.428750	-0.336875
-4.819000	-0.244000	1013.697998	-0.323750	0.323750	-0.280000
-11.529000	-4.636000	1015.650024	-0.560000	0.402500	-0.196875
-9.150001	4.941000	1016.626038	-0.441875	0.599375	-0.271250
-8.662000	-0.793000	1016.504028	-0.336875	0.756875	-0.253750
-13.603000	0.976000	1013.697998	-0.087500	0.743750	-0.240625
-11.407001	-1.464000	1014.552002	-0.135625	0.638750	-0.367500
-6.649000	1.647000	1014.307983	-0.371875	0.455000	-0.367500
-5.368000	0.000000	1015.893982	-0.411250	0.612500	-0.253750
-12.749001	-1.952000	1015.893982	-0.354375	0.835625	-0.245000
-12.322001	2.623000	1019.005005	-0.135625	0.463750	-0.293125
-8.479000	-2.684000	1016.869995	-0.253750	0.332500	-0.284375
-11.102000	2.013000	1017.114014	-0.258125	0.586250	-0.306250
-10.248000	0.610000	1016.869995	-0.074375	0.682500	-0.284375
-10.858000	-1.220000	1016.504028	-0.083125	0.573125	-0.275625
-8.235000	-1.098000	1014.307983	-0.245000	0.323750	-0.288750
-11.956000	1.525000	1012.112000	-0.315000	0.402500	-0.293125
-9.455000	0.366000	1015.833008	-0.175000	0.520625	-0.271250
-4.819000	-1.464000	1015.772034	-0.105000	0.507500	-0.297500
-6.954000	1.037000	1014.307983	-0.157500	0.630000	-0.371875
-9.150001	-4.209000	1016.015991	-0.135625	0.560000	-0.297500
-7.686000	-3.660000	1011.746033	-0.385000	0.472500	-0.328125
-12.566000	4.087000	1019.737000	-0.398125	0.437500	-0.271250
-11.102000	1.342000	1013.393005	-0.441875	0.490000	-0.227500
-14.396000	0.488000	1016.199036	-0.472500	0.542500	-0.258125
-10.980000	-1.952000	1013.454041	-0.175000	0.853125	-0.236250
-11.102000	-1.464000	1015.528015	-0.328125	0.735000	-0.371875
-11.590000	2.135000	1016.015991	-0.192500	0.638750	-0.376250
-11.102000	4.758000	1014.796021	-0.223125	0.406875	-0.319375
-12.444000	-1.403000	1014.552002	-0.306250	0.363125	-0.214375
-7.625000	-0.488000	1012.478027	-0.350000	0.595000	-0.275625
-6.344000	4.819000	1014.552002	-0.319375	0.476875	-0.319375
-15.311000	2.074000	1017.174988	-0.481250	0.249375	-0.319375
-7.991000	2.562000	1016.382019	-0.428750	0.249375	-0.236250
-11.468000	4.270000	1015.283997	-0.402500	0.420000	-0.297500
-8.601000	-0.366000	1017.236023	-0.271250	0.476875	-0.280000
-9.394000	5.063000	1016.015991	-0.275625	0.380625	-0.253750
-9.272000	2.562000	1014.307983	-0.389375	0.533750	-0.323750
-10.736000	4.636000	1014.796021	-0.126875	0.586250	-0.253750
-11.346000	-1.403000	1014.552002	-0.043750	0.389375	-0.231875
-6.405000	1.647000	1014.674011	-0.253750	0.481250	-0.262500
-7.930000	2.806000	1016.626038	-0.201250	0.525000	-0.231875
-9.272000	-2.440000	1017.114014	-0.043750	0.406875	-0.214375
-7.808000	2.257000	1018.455994	-0.350000	0.516250	-0.319375
-8.784000	-3.538000	1015.772034	-0.463750	0.682500	-0.266875
-8.540000	-0.427000	1015.772034	-0.315000	0.743750	-0.363125
-13.603000	-2.562000	1015.893982	-0.315000	0.455000	-0.345625
-6.161000	0.061000	1022.054993	-0.380625	0.328125	-0.332500
-10.980000	-0.976000	1015.588989	-0.253750	0.630000	-0.253750
-8.906000	0.122000	1016.992004	-0.183750	0.704375	-0.310625
-4.697000	2.440000	1016.382019	-0.100625	0.599375	-0.271250
-11.407001	0.610000	1013.697998	-0.118125	0.433125	-0.214375
-8.601000	2.318000	1011.989990	-0.266875	0.630000	-0.188125
-14.579000	1.464000	1013.454041	-0.135625	0.796250	-0.288750
-11.468000	3.965000	1016.747986	-0.363125	0.783125	-0.354375
-6.649000	1.830000	1018.090027	-0.297500	0.577500	-0.288750
-11.346000	-2.440000	1013.088013	-0.179375	0.695625	-0.157500
-7.137000	1.403000	1017.174988	-0.262500	0.713125	-0.328125
-12.871000	-2.196000	1016.869995	0.043750	0.634375	-0.354375
-8.479000	-0.854000	1017.236023	-0.205625	0.332500	-0.389375
-6.588000	1.220000	1013.454041	-0.345625	0.520625	-0.306250
-8.662000	-2.684000	1014.307983	-0.363125	0.555625	-0.266875
-5.551000	-0.610000	1018.395020	-0.288750	0.726250	-0.345625
-7.869000	4.209000	1018.395020	-0.210000	0.293125	-0.253750
-4.697000	-2.257000	1014.674011	-0.262500	0.345625	-0.350000
-10.797000	-0.244000	1017.541016	-0.205625	0.485625	-0.258125
-10.004000	-1.098000	1015.283997	-0.240625	0.647500	-0.310625
-5.673000	-2.562000	1013.575989	-0.560000	0.708750	-0.332500
-8.052000	-2.806000	1013.820007	-0.415625	0.818125	-0.236250
-9.882000	0.427000	1016.687012	-0.266875	0.686875	-0.275625
-5.917000	0.122000	1015.406006	-0.148750	0.468125	-0.315000
-7.320000	0.244000	1016.626038	-0.385000	0.459375	-0.284375
-6.466000	0.122000	1018.090027	-0.389375	0.612500	-0.367500
-10.370000	0.976000	1012.112000	-0.380625	0.717500	-0.319375
-9.516000	3.050000	1015.223022	-0.231875	0.700000	-0.446250
-8.052000	0.610000	1014.918030	-0.131250	0.638750	-0.376250
-9.272000	5.063000	1017.358032	-0.061250	0.402500	-0.315000
-10.248000	0.488000	1015.893982	-0.218750	0.345625	-0.218750
-7.137000	0.610000	1015.283997	-0.293125	0.673750	-0.323750
-7.442000	5.551000	1013.942017	-0.131250	0.380625	-0.271250
-10.614000	-4.331000	1018.028992	-0.096250	0.441875	-0.323750
-5.551000	4.453000	1017.968018	-0.293125	0.380625	-0.288750
-8.967000	2.318000	1018.028992	-0.315000	0.599375	-0.301875
-5.795000	-0.610000	1016.260010	-0.148750	0.656250	-0.328125
-7.442000	0.610000	1016.504028	-0.122500	0.507500	-0.323750
-6.832000	-1.952000	1019.492981	-0.262500	0.328125	-0.332500
-7.808000	-0.366000	1015.283997	-0.336875	0.490000	-0.332500
-10.614000	4.331000	1018.395020	-0.354375	0.665000	-0.301875
-9.028000	-2.379000	1015.893982	-0.140000	0.568750	-0.175000
-11.102000	1.769000	1018.212036	-0.135625	0.507500	-0.275625
-7.381000	-0.854000	1012.661011	-0.192500	0.420000	-0.371875
-9.638000	2.257000	1014.674011	-0.350000	0.288750	-0.319375
-13.359000	-0.610000	1014.552002	-0.310625	0.406875	-0.315000
-8.235000	1.098000	1016.138000	-0.061250	0.498750	-0.358750
-4.575000	1.830000	1017.846008	-0.310625	0.826875	-0.288750
-9.272000	0.488000	1016.504028	-0.310625	0.704375	-0.284375
-9.028000	-3.904000	1016.626038	-0.245000	0.437500	-0.275625
-9.882000	2.745000	1019.127014	-0.490000	0.542500	-0.332500
-12.078000	2.196000	1014.429993	-0.266875	0.735000	-0.262500
-9.333000	0.854000	1012.600037	-0.100625	0.630000	-0.280000
-7.564000	0.610000	1015.955017	-0.297500	0.612500	-0.310625
-8.296000	1.830000	1015.772034	-0.310625	0.468125	-0.332500
-10.370000	-0.976000	1015.893982	-0.231875	0.665000	-0.341250
-10.858000	1.891000	1015.528015	-0.205625	0.621250	-0.258125
-12.688000	4.941000	1015.528015	-0.301875	0.498750	-0.341250
-6.039000	-3.355000	1014.552002	-0.345625	0.345625	-0.420000
-4.270000	-3.538000	1015.161987	-0.455000	0.590625	-0.406875
-11.163000	1.647000	1018.273010	-0.424375	0.437500	-0.315000
-10.614000	-2.074000	1017.601990	-0.306250	0.546875	-0.354375
-7.747000	2.623000	1015.772034	-0.227500	0.616875	-0.297500
-4.331000	1.342000	1018.760986	-0.385000	0.603750	-0.306250
-6.893000	-1.830000	1018.760986	-0.420000	0.297500	-0.328125
-11.468000	1.037000	1016.382019	-0.481250	0.533750	-0.319375
-11.956000	-0.122000	1016.992004	-0.371875	0.621250	-0.280000
-9.699000	1.464000	1017.236023	-0.249375	0.625625	-0.319375
-10.370000	2.318000	1018.944031	-0.179375	0.428750	-0.354375
-7.930000	5.551000	1017.236023	-0.258125	0.546875	-0.297500
-7.930000	4.026000	1014.918030	-0.463750	0.752500	-0.306250
-9.272000	-1.647000	1013.820007	-0.455000	0.730625	-0.210000
-10.248000	6.893000	1015.283997	-0.100625	0.376250	-0.280000
-6.710000	-2.562000	1012.234009	-0.367500	0.402500	-0.332500
-8.174000	4.087000	1018.028992	-0.315000	0.586250	-0.345625
-10.004000	2.074000	1016.138000	-0.122500	0.682500	-0.319375
-7.747000	2.806000	1013.820007	-0.310625	0.411250	-0.336875
-8.174000	0.244000	1016.565002	-0.205625	0.441875	-0.284375
-13.969000	1.586000	1017.236023	-0.280000	0.546875	-0.271250
-11.712000	-2.318000	1015.772034	-0.030625	0.612500	-0.328125
-10.492001	-4.270000	1016.138000	-0.297500	0.472500	-0.389375
-11.224000	4.087000	1011.867981	-0.240625	0.332500	-0.227500
-9.516000	1.342000	1016.687012	-0.319375	0.485625	-0.271250
-12.383000	3.538000	1016.809021	-0.188125	0.621250	-0.266875
-8.113000	1.220000	1017.723999	-0.271250	0.428750	-0.240625
-11.224000	3.294000	1017.723999	-0.319375	0.608125	-0.262500
-10.370000	2.562000	1016.382019	-0.450625	0.651875	-0.310625
-10.004000	2.928000	1015.650024	-0.275625	0.691250	-0.345625
-5.795000	-0.122000	1017.785034	-0.170625	0.503125	-0.332500
-8.174000	-0.122000	1015.040039	-0.350000	0.490000	-0.161875
-8.174000	0.122000	1014.918030	-0.363125	0.546875	-0.266875
-8.540000	2.074000	1016.260010	-0.398125	0.809375	-0.420000
-9.394000	1.891000	1014.918030	-0.350000	0.533750	-0.245000
-10.614000	-2.196000	1016.138000	-0.560000	0.476875	-0.323750
-6.893000	1.525000	1014.918030	-0.380625	0.770000	-0.323750
-14.823000	0.610000	1015.406006	-0.048125	0.608125	-0.323750
-9.577000	3.843000	1016.504028	-0.210000	0.468125	-0.271250
-10.126000	-0.488000	1015.893982	-0.577500	0.616875	-0.240625
-7.381000	0.732000	1014.186035	-0.210000	0.630000	-0.258125
-10.126000	1.830000	1013.454041	-0.223125	0.428750	-0.288750
-9.028000	2.562000	1015.833008	-0.214375	0.494375	-0.275625
-6.649000	3.416000	1018.760986	-0.192500	0.301875	-0.275625
-11.468000	-1.342000	1014.307983	-0.218750	0.520625	-0.336875
-4.941000	0.610000	1015.283997	-0.175000	0.643125	-0.288750
-9.150001	2.806000	1015.650024	-0.210000	0.660625	-0.376250
-12.444000	2.928000	1013.697998	-0.196875	0.533750	-0.293125
-8.235000	5.612000	1017.296997	-0.236250	0.350000	-0.301875
-8.662000	-1.037000	1017.236023	-0.455000	0.630000	-0.297500
-11.224000	3.477000	1019.309998	-0.210000	0.647500	-0.293125
-10.126000	-3.599000	1017.480042	-0.175000	0.463750	-0.205625
-4.819000	2.379000	1018.944031	-0.201250	0.402500	-0.266875
-10.126000	1.830000	1013.332031	-0.188125	0.529375	-0.319375
-7.625000	2.928000	1018.517029	-0.236250	0.590625	-0.323750
-6.344000	-2.867000	1016.138000	-0.376250	0.516250	-0.301875
-6.954000	-4.026000	1017.846008	-0.494375	0.573125	-0.341250
-8.174000	1.769000	1015.893982	-0.389375	0.551250	-0.288750
-6.222000	-2.806000	1018.578003	-0.280000	0.599375	-0.271250
-11.102000	-2.440000	1018.212036	-0.170625	0.770000	-0.280000
-5.673000	2.013000	1014.674011	-0.363125	0.665000	-0.306250
-10.675000	4.392000	1017.174988	-0.354375	0.485625	-0.358750
-10.248000	1.708000	1013.088013	-0.481250	0.516250	-0.271250
-6.405000	3.782000	1015.955017	-0.131250	0.546875	-0.380625
-9.272000	-1.220000	1017.846008	-0.175000	0.406875	-0.398125
-2.379000	-2.196000	1020.713013	-0.148750	0.398125	-0.297500
-8.967000	1.525000	1014.979004	-0.310625	0.577500	-0.332500
-4.697000	-0.976000	1013.088013	-0.245000	0.682500	-0.341250
-10.187000	4.575000	1012.234009	-0.231875	0.599375	-0.380625
-8.296000	-0.610000	1017.296997	-0.332500	0.424375	-0.367500
-8.784000	3.477000	1015.772034	-0.336875	0.735000	-0.227500
-10.858000	2.684000	1018.517029	-0.341250	0.761250	-0.253750
-7.869000	-1.403000	1016.138000	-0.293125	0.358750	-0.393750
-10.248000	1.403000	1017.723999	-0.262500	0.498750	-0.367500
-7.930000	4.575000	1014.918030	-0.389375	0.625625	-0.301875
-8.906000	-1.891000	1018.151001	-0.350000	0.446250	-0.293125
-9.272000	5.307000	1014.186035	-0.223125	0.389375	-0.297500
-11.712000	7.076000	1012.234009	-0.393750	0.455000	-0.323750
-6.893000	-2.745000	1018.760986	-0.205625	0.529375	-0.275625
-12.200000	-3.416000	1019.187988	-0.258125	0.468125	-0.262500
-8.479000	-3.660000	1014.552002	-0.428750	0.481250	-0.275625
-6.283000	-0.976000	1016.869995	-0.441875	0.787500	-0.367500
-11.346000	1.891000	1015.772034	-0.161875	0.516250	-0.315000
-10.858000	1.220000	1014.186035	-0.148750	0.420000	-0.231875
-8.235000	-3.172000	1016.382019	-0.420000	0.437500	-0.293125
-12.688000	3.721000	1014.918030	-0.258125	0.590625	-0.310625
-12.078000	2.074000	1017.358032	-0.371875	0.555625	-0.306250
-6.039000	-0.488000	1015.406006	-0.511875	0.735000	-0.293125
-5.856000	0.000000	1013.454041	-0.218750	0.695625	-0.231875
-10.492001	1.830000	1014.064026	-0.288750	0.420000	-0.310625
-7.137000	3.538000	1018.578003	-0.345625	0.577500	-0.319375
-13.115000	-5.185000	1015.650024	-0.319375	0.560000	-0.271250
-10.187000	5.490000	1019.127014	-0.122500	0.581875	-0.240625
-11.468000	-1.525000	1015.283997	-0.371875	0.682500	-0.301875
-7.747000	7.015000	1016.138000	-0.258125	0.678125	-0.345625
-11.956000	-5.795000	1015.040039	-0.183750	0.358750	-0.319375
-11.956000	2.501000	1017.236023	-0.380625	0.380625	-0.214375
-4.331000	0.000000	1013.088013	-0.520625	0.568750	-0.293125
-11.285000	5.551000	1014.796021	-0.367500	0.726250	-0.205625
-6.893000	-0.915000	1019.005005	-0.109375	0.385000	-0.249375
-10.248000	-1.647000	1018.700012	-0.367500	0.341250	-0.341250
-9.150001	3.233000	1012.051025	-0.437500	0.389375	-0.306250
-10.980000	-2.257000	1013.820007	-0.533750	0.590625	-0.218750
-10.736000	-2.440000	1014.064026	-0.240625	0.643125	-0.271250
-7.503000	-1.098000	1013.454041	-0.240625	0.420000	-0.341250
-11.590000	2.989000	1013.332031	-0.315000	0.275625	-0.315000
-12.322001	-1.220000	1016.320984	-0.393750	0.573125	-0.293125
-10.126000	1.037000	1011.502014	-0.315000	0.612500	-0.310625
-8.174000	0.488000	1015.223022	-0.511875	0.625625	-0.297500
-9.760000	-0.122000	1016.260010	-0.315000	0.498750	-0.310625
-4.941000	0.854000	1014.918030	-0.306250	0.638750	-0.258125
-12.383000	0.732000	1018.028992	-0.280000	0.634375	-0.249375
-11.224000	0.976000	1016.138000	-0.196875	0.669375	-0.341250
-5.063000	0.366000	1012.843994	-0.205625	0.428750	-0.398125
-6.954000	2.867000	1014.979004	-0.236250	0.280000	-0.231875
-8.052000	2.074000	1013.088013	-0.336875	0.433125	-0.275625
-8.540000	0.610000	1013.697998	-0.450625	0.476875	-0.319375
-5.063000	4.087000	1015.161987	-0.704375	0.721875	-0.306250
-6.100000	0.732000	1019.005005	-0.411250	0.730625	-0.201250
-11.590000	-3.904000	1009.855042	-0.188125	0.586250	-0.310625
-9.272000	2.867000	1014.247009	-0.188125	0.476875	-0.323750
-14.030000	4.148000	1014.552002	-0.376250	0.459375	-0.332500
-7.015000	-1.037000	1011.867981	-0.441875	0.765625	-0.319375
-7.076000	-1.342000	1021.322998	-0.424375	0.796250	-0.280000
-6.588000	-3.050000	1016.015991	-0.188125	0.730625	-0.271250
-9.760000	3.843000	1017.358032	-0.218750	0.498750	-0.266875
-9.272000	4.514000	1016.626038	-0.288750	0.433125	-0.240625
-8.052000	-2.257000	1016.747986	-0.441875	0.595000	-0.297500
-6.649000	-3.660000	1018.395020	-0.350000	0.682500	-0.288750
-10.004000	5.429000	1020.652039	-0.389375	0.581875	-0.262500
-10.248000	-0.915000	1013.759033	-0.231875	0.529375	-0.380625
-12.932000	0.976000	1017.906982	-0.240625	0.669375	-0.402500
-8.113000	2.318000	1018.700012	0.004375	0.581875	-0.266875
-12.932000	-1.830000	1018.822021	-0.402500	0.568750	-0.293125
-6.405000	-1.952000	1014.186035	-0.398125	0.555625	-0.319375
-8.418000	3.111000	1015.406006	-0.231875	0.660625	-0.363125
-2.257000	0.366000	1017.114014	-0.280000	0.441875	-0.310625
-9.943000	-1.708000	1013.697998	-0.328125	0.525000	-0.310625
-12.078000	-0.610000	1017.114014	-0.205625	0.485625	-0.350000
-10.370000	2.257000	1013.575989	-0.472500	0.551250	-0.297500
-10.004000	-1.220000	1013.697998	-0.385000	0.494375	-0.214375
-5.673000	3.111000	1014.796021	-0.319375	0.511875	-0.223125
-14.091001	-3.355000	1016.626038	-0.350000	0.713125	-0.341250
-8.113000	0.793000	1013.454041	-0.192500	0.603750	-0.253750
-10.858000	2.074000	1012.721985	-0.179375	0.520625	-0.271250
-7.381000	-2.196000	1017.174988	-0.196875	0.485625	-0.319375
-11.468000	-1.342000	1019.554016	-0.393750	0.542500	-0.332500
-5.917000	-2.135000	1016.260010	-0.350000	0.402500	-0.310625
-10.492001	3.721000	1017.480042	-0.490000	0.603750	-0.258125
-7.259000	-3.233000	1014.918030	-0.380625	0.424375	-0.223125
-8.906000	2.135000	1015.161987	-0.341250	0.573125	-0.183750
-9.760000	-5.795000	1019.614990	-0.280000	0.603750	-0.315000
-8.174000	0.671000	1015.040039	-0.415625	0.608125	-0.284375
-6.344000	-2.196000	1019.005005	-0.402500	0.634375	-0.262500
-11.346000	-1.952000	1015.283997	-0.188125	0.625625	-0.271250
-8.601000	-1.464000	1014.796021	-0.402500	0.511875	-0.341250
-8.052000	-1.098000	1022.299011	-0.153125	0.568750	-0.301875
-11.956000	1.647000	1018.333984	-0.341250	0.700000	-0.227500
-10.614000	-0.122000	1015.650024	-0.328125	0.511875	-0.227500
-10.126000	-0.854000	1015.650024	-0.280000	0.389375	-0.297500
-13.908000	-0.366000	1015.528015	-0.371875	0.463750	-0.315000
-7.991000	3.843000	1014.674011	-0.494375	0.498750	-0.258125
-7.808000	-2.501000	1019.492981	-0.437500	0.612500	-0.358750
-11.346000	-0.122000	1017.114014	-0.323750	0.485625	-0.363125
-7.869000	2.013000	1015.161987	-0.126875	0.581875	-0.271250
-11.956000	1.708000	1016.747986	-0.328125	0.472500	-0.201250
-7.686000	1.464000	1016.138000	-0.507500	0.494375	-0.266875
-10.126000	-1.098000	1016.992004	-0.293125	0.411250	-0.301875
-3.843000	-2.928000	1015.528015	-0.420000	0.498750	-0.236250
-9.699000	-0.732000	1015.406006	-0.205625	0.595000	-0.245000
-8.540000	-0.854000	1019.981018	-0.100625	0.595000	-0.218750
-12.444000	2.745000	1016.626038	-0.450625	0.389375	-0.262500
-12.566000	1.830000	1020.468994	-0.463750	0.433125	-0.306250
-8.967000	-0.854000	1013.515015	-0.345625	0.616875	-0.341250
-8.906000	-1.708000	1016.809021	-0.323750	0.844375	-0.385000
-8.906000	-2.684000	1011.075012	-0.310625	0.708750	-0.240625
-5.551000	6.527000	1018.944031	-0.030625	0.520625	-0.249375
-12.749001	2.684000	1016.382019	-0.258125	0.560000	-0.218750
-8.479000	-0.976000	1017.358032	-0.363125	0.638750	-0.358750
-7.198000	4.575000	1013.088013	-0.328125	0.704375	-0.350000
-8.296000	2.684000	1014.918030	-0.433125	0.441875	-0.315000
-4.575000	-1.098000	1016.260010	-0.468125	0.608125	-0.380625
-10.309000	2.135000	1014.064026	-0.297500	0.581875	-0.380625
-13.176001	0.244000	1015.283997	-0.236250	0.481250	-0.288750
-7.015000	0.854000	1014.064026	-0.249375	0.385000	-0.323750
-7.076000	-0.610000	1015.406006	-0.332500	0.503125	-0.214375
-10.980000	2.989000	1015.406006	-0.367500	0.621250	-0.328125
-8.723001	5.917000	1015.406006	-0.166250	0.507500	-0.424375
-5.856000	-1.525000	1016.382019	-0.201250	0.319375	-0.354375
-14.945000	0.244000	1016.992004	-0.354375	0.603750	-0.376250
-5.063000	-1.830000	1016.260010	-0.332500	0.717500	-0.214375
-16.287001	2.135000	1016.869995	-0.415625	0.555625	-0.323750
-6.527000	1.586000	1018.578003	-0.323750	0.621250	-0.301875
-11.346000	1.220000	1013.942017	-0.157500	0.603750	-0.297500
-9.150001	3.294000	1019.981018	-0.223125	0.546875	-0.315000
-7.686000	-0.732000	1015.101013	-0.643125	0.800625	-0.275625
-8.662000	-1.708000	1015.650024	-0.406875	0.686875	-0.301875
-8.540000	4.453000	1016.260010	-0.249375	0.433125	-0.249375
-6.222000	0.000000	1014.552002	-0.236250	0.345625	-0.315000
-4.880000	6.283000	1017.785034	-0.293125	0.463750	-0.319375
-12.139000	-0.183000	1019.919983	-0.481250	0.376250	-0.367500
-8.967000	2.257000	1013.759033	-0.503125	0.485625	-0.332500
-11.224000	-0.732000	1015.955017	-0.323750	0.682500	-0.223125
-1.647000	2.135000	1014.552002	-0.245000	0.634375	-0.249375
-11.407001	-2.440000	1015.040039	-0.048125	0.498750	-0.306250
-7.564000	-0.366000	1015.223022	-0.350000	0.380625	-0.231875
-8.784000	-0.732000	1016.382019	-0.363125	0.717500	-0.253750
-8.418000	4.941000	1014.552002	-0.205625	0.638750	-0.122500
-5.978000	0.732000	1015.772034	-0.091875	0.297500	-0.245000
-10.980000	-1.464000	1012.112000	-0.345625	0.437500	-0.363125
-12.444000	-4.148000	1017.174988	-0.393750	0.752500	-0.328125
-9.882000	0.793000	1013.454041	-0.153125	0.665000	-0.306250
-9.394000	2.989000	1015.772034	-0.148750	0.420000	-0.389375
-6.405000	1.464000	1014.307983	-0.236250	0.420000	-0.310625
-7.808000	-3.416000	1014.307983	-0.227500	0.581875	-0.284375
-4.453000	-3.416000	1014.064026	-0.332500	0.660625	-0.358750
-8.174000	1.525000	1016.747986	-0.389375	0.581875	-0.293125
-8.174000	-1.342000	1013.942017	-0.175000	0.573125	-0.310625
-13.847000	0.000000	1013.697998	-0.336875	0.490000	-0.262500
-14.274000	3.599000	1015.528015	-0.301875	0.660625	-0.240625
-7.869000	3.294000	1017.236023	-0.210000	0.441875	-0.236250
-6.466000	-2.257000	1017.114014	-0.546875	0.433125	-0.214375
-8.906000	2.501000	1016.138000	-0.546875	0.450625	-0.328125
-9.028000	-0.854000	1012.721985	-0.323750	0.568750	-0.214375
-9.699000	0.610000	1016.504028	-0.406875	0.568750	-0.354375
-9.760000	6.039000	1018.333984	-0.468125	0.787500	-0.210000
-12.200000	0.183000	1017.114014	-0.341250	0.686875	-0.231875
-9.882000	3.233000	1014.186035	-0.236250	0.525000	-0.223125
-6.039000	-0.244000	1016.138000	-0.266875	0.420000	-0.249375
-8.174000	2.135000	1014.552002	-0.376250	0.450625	-0.214375
-11.346000	1.220000	1013.332031	-0.293125	0.603750	-0.210000
-7.381000	0.854000	1017.785034	-0.161875	0.542500	-0.371875
-10.492001	3.355000	1013.332031	-0.170625	0.376250	-0.288750
-10.126000	-1.098000	1016.260010	-0.468125	0.520625	-0.332500
-5.673000	2.013000	1015.650024	-0.183750	0.651875	-0.306250
-4.514000	0.366000	1017.358032	-0.350000	0.577500	-0.380625
-12.871000	5.551000	1015.772034	-0.520625	0.682500	-0.358750
-7.015000	-0.549000	1017.236023	-0.301875	0.700000	-0.258125
-12.078000	2.379000	1018.822021	-0.398125	0.647500	-0.280000
-7.381000	-1.098000	1017.968018	-0.336875	0.511875	-0.262500
-10.004000	1.647000	1018.333984	-0.258125	0.455000	-0.328125
-6.527000	1.342000	1017.236023	-0.371875	0.503125	-0.288750
-6.588000	-2.074000	1016.747986	-0.402500	0.280000	-0.236250
-10.858000	0.854000	1015.893982	-0.380625	0.402500	-0.336875
-4.697000	0.244000	1015.893982	-0.301875	0.494375	-0.328125
-11.773000	3.477000	1015.650024	-0.297500	0.288750	-0.310625
-11.468000	3.294000	1015.772034	-0.420000	0.433125	-0.258125
-7.137000	3.660000	1018.273010	-0.367500	0.643125	-0.188125
-9.028000	-1.342000	1013.210022	-0.323750	0.787500	-0.201250
-10.858000	0.488000	1015.528015	-0.188125	0.660625	-0.319375
-8.479000	1.586000	1014.064026	-0.323750	0.328125	-0.280000
-13.298000	0.488000	1015.650024	-0.345625	0.385000	-0.245000
-9.821000	-1.220000	1014.918030	-0.376250	0.686875	-0.315000
-6.771000	6.161000	1015.040039	-0.441875	0.459375	-0.275625
-10.858000	-2.867000	1017.480042	-0.380625	0.367500	-0.293125
-6.405000	3.843000	1016.992004	-0.350000	0.560000	-0.336875
-6.954000	0.976000	1017.114014	-0.205625	0.560000	-0.420000
-7.076000	0.976000	1018.822021	-0.354375	0.616875	-0.371875
-8.662000	-0.854000	1015.528015	-0.472500	0.498750	-0.341250
-7.686000	0.732000	1020.225037	-0.293125	0.564375	-0.332500
-8.906000	-3.172000	1016.504028	-0.096250	0.651875	-0.293125
-13.420000	4.209000	1016.626038	-0.245000	0.560000	-0.240625
-4.087000	-0.732000	1015.040039	-0.433125	0.538125	-0.288750
-10.309000	3.355000	1017.785034	-0.389375	0.691250	-0.288750
-6.771000	3.904000	1015.650024	-0.231875	0.402500	-0.266875
-8.174000	4.636000	1014.552002	-0.196875	0.371875	-0.376250
-5.307000	2.074000	1015.040039	-0.266875	0.354375	-0.271250
-5.246000	-2.074000	1018.028992	-0.310625	0.573125	-0.231875
-7.564000	1.159000	1019.919983	-0.310625	0.756875	-0.284375
-8.418000	5.063000	1014.734985	-0.266875	0.568750	-0.284375
-8.662000	-0.305000	1016.260010	-0.183750	0.494375	-0.350000
-7.564000	2.745000	1015.406006	-0.306250	0.481250	-0.389375
-10.858000	-2.562000	1015.406006	-0.406875	0.586250	-0.293125
-7.259000	-0.732000	1015.161987	-0.275625	0.581875	-0.253750
-10.492001	2.501000	1018.028992	-0.183750	0.450625	-0.301875
-11.590000	0.366000	1017.846008	-0.376250	0.581875	-0.319375
-10.248000	7.503000	1015.772034	-0.249375	0.608125	-0.275625
-11.102000	-1.403000	1012.721985	-0.135625	0.612500	-0.315000
-6.039000	-0.488000	1017.053040	-0.183750	0.354375	-0.350000
-7.808000	-4.880000	1017.723999	-0.315000	0.350000	-0.323750
-9.028000	2.379000	1016.382019	-0.245000	0.455000	-0.258125
-6.771000	0.976000	1014.796021	-0.288750	0.573125	-0.367500
-9.638000	3.294000	1016.382019	-0.218750	0.730625	-0.266875
-7.198000	-0.366000	1013.454041	-0.262500	0.542500	-0.319375
-8.662000	-0.366000	1016.687012	-0.332500	0.643125	-0.183750
-11.834001	4.331000	1016.382019	-0.328125	0.700000	-0.293125
-17.995001	2.684000	1018.090027	-0.192500	0.612500	-0.271250
-11.163000	0.854000	1015.283997	-0.332500	0.411250	-0.271250
-2.379000	-2.684000	1016.504028	-0.371875	0.581875	-0.358750
-8.479000	2.867000	1019.371033	-0.310625	0.503125	-0.323750
-15.799000	2.440000	1017.114014	-0.345625	0.437500	-0.245000
-5.551000	-3.843000	1016.320984	-0.192500	0.490000	-0.323750
-4.270000	-0.671000	1016.992004	-0.056875	0.634375	-0.345625
-13.359000	6.771000	1013.454041	-0.428750	0.660625	-0.245000
-14.152000	3.294000	1016.565002	-0.643125	0.538125	-0.271250
-6.893000	-0.122000	1017.358032	-0.266875	0.691250	-0.315000
-7.320000	-1.464000	1016.504028	-0.354375	0.573125	-0.310625
-8.784000	2.257000	1014.186035	-0.385000	0.358750	-0.284375
-15.555000	-0.122000	1016.138000	-0.345625	0.673750	-0.341250
-6.527000	0.854000	1014.064026	-0.214375	0.669375	-0.371875
-6.466000	-1.342000	1016.504028	-0.039375	0.367500	-0.319375
-12.871000	-5.856000	1013.697998	-0.126875	0.310625	-0.350000
-7.625000	3.721000	1018.273010	-0.210000	0.380625	-0.297500
-10.370000	1.464000	1017.846008	-0.345625	0.476875	-0.293125
-8.174000	-0.732000	1015.893982	-0.336875	0.603750	-0.249375
-15.311000	0.000000	1018.333984	-0.144375	0.673750	-0.315000
-12.017000	2.684000	1018.090027	-0.131250	0.577500	-0.323750
-14.152000	1.464000	1015.650024	-0.126875	0.472500	-0.363125
-5.307000	2.562000	1014.918030	-0.354375	0.494375	-0.297500
-10.004000	0.976000	1012.966003	-0.424375	0.581875	-0.201250
-9.394000	3.111000	1011.014038	-0.258125	0.560000	-0.306250
-6.954000	3.782000	1018.273010	-0.140000	0.481250	-0.297500
-8.784000	0.610000	1019.432007	-0.319375	0.468125	-0.310625
-13.786000	1.342000	1013.942017	-0.402500	0.490000	-0.341250
-8.479000	0.976000	1018.517029	-0.481250	0.708750	-0.345625
-11.346000	-1.098000	1014.552002	-0.297500	0.730625	-0.328125
-11.834001	-0.366000	1015.772034	-0.236250	0.586250	-0.424375
-9.089000	1.830000	1014.552002	-0.196875	0.612500	-0.402500
-12.444000	0.732000	1015.161987	-0.231875	0.420000	-0.328125
-2.745000	-0.976000	1015.161987	-0.253750	0.538125	-0.271250
-10.126000	0.854000	1017.663025	-0.503125	0.555625	-0.262500
-14.274000	5.063000	1012.843994	-0.065625	0.398125	-0.280000
-7.625000	-5.917000	1014.856995	-0.249375	0.581875	-0.175000
-9.272000	-3.843000	1018.273010	-0.319375	0.603750	-0.196875
-6.527000	-0.793000	1016.260010	-0.231875	0.608125	-0.253750
-10.370000	6.039000	1016.747986	-0.043750	0.682500	-0.354375
-18.849001	4.514000	1016.138000	-0.144375	0.481250	-0.245000
-6.588000	-2.745000	1016.869995	-0.363125	0.446250	-0.205625
-7.076000	-1.342000	1014.064026	-0.463750	0.564375	-0.236250
-11.468000	2.989000	1014.064026	-0.266875	0.686875	-0.341250
-10.187000	2.928000	1016.382019	-0.319375	0.555625	-0.371875
-6.527000	3.538000	1014.796021	-0.284375	0.647500	-0.297500
-8.174000	-0.976000	1014.552002	-0.293125	0.533750	-0.328125
-6.344000	-0.732000	1014.064026	-0.262500	0.647500	-0.402500
-11.895000	5.063000	1013.697998	-0.240625	0.761250	-0.345625
-6.161000	0.366000	1015.833008	-0.266875	0.581875	-0.306250
-6.588000	0.366000	1015.650024	-0.389375	0.568750	-0.328125
-12.139000	-1.708000	1017.358032	-0.367500	0.673750	-0.245000
-11.346000	0.244000	1014.064026	-0.336875	0.590625	-0.345625
-7.015000	0.732000	1016.869995	-0.223125	0.481250	-0.288750
-13.115000	2.806000	1013.697998	-0.345625	0.560000	-0.284375
-6.893000	2.440000	1013.088013	-0.061250	0.713125	-0.323750
-15.799000	1.220000	1018.760986	-0.166250	0.481250	-0.301875
-10.187000	-3.782000	1017.723999	-0.293125	0.494375	-0.345625
-9.638000	2.501000	1016.138000	-0.341250	0.739375	-0.310625
-7.564000	0.122000	1017.358032	-0.262500	0.538125	-0.350000
-11.956000	-1.952000	1017.480042	-0.245000	0.551250	-0.350000
-9.699000	-0.854000	1016.626038	-0.245000	0.612500	-0.280000
-9.394000	5.307000	1018.578003	-0.328125	0.656250	-0.297500
-3.843000	1.708000	1014.552002	-0.083125	0.363125	-0.266875
-13.969000	-1.708000	1018.151001	-0.380625	0.630000	-0.293125
-8.967000	-1.586000	1014.064026	-0.196875	0.682500	-0.266875
-7.686000	1.891000	1015.772034	0.004375	0.568750	-0.398125
-7.686000	6.405000	1015.528015	-0.109375	0.463750	-0.280000
-11.468000	2.562000	1015.650024	-0.345625	0.398125	-0.258125
-10.614000	0.000000	1014.796021	-0.463750	0.406875	-0.288750
-7.747000	0.610000	1013.697998	-0.223125	0.538125	-0.262500
-5.368000	-1.830000	1017.785034	-0.188125	0.581875	-0.249375
-7.442000	-1.708000	1013.454041	-0.301875	0.367500	-0.297500
-10.553000	1.952000	1015.528015	-0.363125	0.630000	-0.336875
-12.566000	-1.220000	1014.064026	-0.328125	0.700000	-0.306250
-6.283000	-3.416000	1019.614990	-0.161875	0.748125	-0.249375
-4.758000	4.209000	1016.382019	-0.398125	0.673750	-0.371875
-4.514000	4.514000	1015.040039	-0.323750	0.560000	-0.227500
-13.115000	4.270000	1013.820007	-0.236250	0.511875	-0.223125
-5.917000	2.074000	1016.442993	-0.262500	0.630000	-0.323750
-10.126000	-0.366000	1017.723999	-0.100625	0.573125	-0.306250
-7.930000	1.098000	1013.575989	-0.315000	0.612500	-0.371875
-12.688000	-1.769000	1017.236023	-0.240625	0.367500	-0.371875
-10.431000	-0.732000	1016.992004	-0.297500	0.367500	-0.301875
-7.747000	-1.342000	1021.689026	-0.420000	0.463750	-0.236250
-14.091001	6.039000	1014.613037	-0.210000	0.608125	-0.271250
-7.381000	-1.403000	1014.674011	-0.253750	0.813750	-0.297500
-5.246000	2.379000	1015.040039	-0.332500	0.546875	-0.240625
-12.383000	-2.196000	1015.161987	-0.446250	0.774375	-0.227500
-14.762000	-3.172000	1014.674011	-0.323750	0.752500	-0.293125
-6.039000	-2.318000	1015.893982	-0.091875	0.551250	-0.345625
-5.612000	-2.196000	1019.371033	-0.148750	0.616875	-0.266875
-13.603000	1.952000	1019.371033	-0.179375	0.638750	-0.205625
-7.991000	-7.869000	1014.186035	-0.210000	0.555625	-0.175000
-4.575000	-1.525000	1016.015991	-0.131250	0.511875	-0.288750
-10.431000	0.915000	1012.356018	-0.231875	0.551250	-0.406875
-9.150001	3.294000	1014.307983	-0.367500	0.437500	-0.358750
-10.126000	-5.063000	1018.760986	-0.490000	0.503125	-0.363125
-10.248000	-6.222000	1015.161987	-0.411250	0.787500	-0.196875
-6.283000	4.026000	1013.210022	-0.100625	0.481250	-0.341250
-9.638000	-2.989000	1013.942017	-0.271250	0.336875	-0.328125
-10.248000	-1.586000	1017.968018	-0.358750	0.503125	-0.398125
-11.102000	0.854000	1016.260010	-0.201250	0.603750	-0.249375
-6.527000	5.307000	1016.138000	-0.323750	0.599375	-0.310625
-13.237000	2.318000	1018.700012	-0.358750	0.481250	-0.306250
-9.821000	3.172000	1013.820007	-0.389375	0.498750	-0.288750
-7.381000	1.098000	1014.796021	-0.280000	0.590625	-0.253750
-8.418000	0.732000	1016.138000	-0.389375	0.643125	-0.258125
-8.540000	-1.952000	1014.674011	-0.332500	0.560000	-0.319375
-4.697000	-0.488000	1014.186035	-0.350000	0.726250	-0.315000
-6.466000	-0.122000	1012.966003	-0.109375	0.560000	-0.245000
-6.954000	-2.440000	1016.015991	-0.385000	0.350000	-0.271250
-8.174000	0.427000	1014.674011	-0.446250	0.498750	-0.345625
-2.013000	0.732000	1016.138000	-0.297500	0.726250	-0.310625
-6.710000	1.952000	1019.249023	-0.367500	0.568750	-0.275625
-6.100000	0.976000	1016.992004	-0.358750	0.494375	-0.245000
-8.174000	-1.464000	1019.981018	-0.253750	0.630000	-0.231875
-3.355000	-1.098000	1014.734985	-0.205625	0.643125	-0.398125
-10.431000	1.525000	1017.663025	-0.205625	0.713125	-0.306250
-12.932000	2.562000	1016.015991	-0.297500	0.498750	-0.332500
-8.357000	-1.098000	1018.578003	-0.284375	0.437500	-0.319375
-5.856000	0.488000	1017.236023	-0.144375	0.380625	-0.328125
-14.091001	2.989000	1017.480042	-0.358750	0.494375	-0.275625
-7.015000	1.830000	1012.843994	-0.227500	0.564375	-0.249375
-9.272000	0.366000	1014.186035	-0.131250	0.498750	-0.367500
-7.076000	0.122000	1016.809021	-0.214375	0.560000	-0.249375
-9.760000	-1.220000	1012.600037	-0.284375	0.437500	-0.236250
-11.346000	1.281000	1013.820007	-0.350000	0.581875	-0.236250
-7.381000	0.854000	1016.199036	-0.249375	0.686875	-0.253750
-6.832000	1.952000	1014.064026	-0.122500	0.735000	-0.328125
-12.566000	-2.074000	1018.700012	-0.210000	0.468125	-0.323750
-7.625000	2.623000	1015.650024	-0.131250	0.341250	-0.306250
-6.466000	-3.477000	1017.480042	-0.328125	0.450625	-0.271250
-9.272000	-0.915000	1013.088013	-0.328125	0.590625	-0.245000
-5.551000	1.891000	1012.721985	-0.192500	0.739375	-0.306250
-7.320000	3.050000	1015.955017	-0.288750	0.765625	-0.284375
-4.575000	-0.122000	1014.186035	-0.275625	0.634375	-0.236250
-8.662000	0.976000	1016.626038	-0.293125	0.459375	-0.293125
-11.834001	1.464000	1015.040039	-0.336875	0.507500	-0.354375
-10.248000	0.488000	1013.820007	-0.328125	0.525000	-0.258125
-11.590000	0.427000	1016.931030	-0.306250	0.568750	-0.301875
-12.566000	-0.854000	1019.737000	-0.196875	0.498750	-0.301875
-10.004000	-1.342000	1016.626038	-0.118125	0.468125	-0.350000
-9.272000	2.501000	1016.138000	-0.253750	0.354375	-0.380625
-6.283000	-1.098000	1016.138000	-0.271250	0.551250	-0.310625
-11.773000	2.257000	1015.283997	-0.411250	0.555625	-0.240625
-10.614000	-1.708000	1014.307983	-0.481250	0.634375	-0.271250
-9.272000	-1.952000	1017.906982	-0.188125	0.739375	-0.266875
-13.054000	-1.342000	1011.441040	-0.210000	0.599375	-0.332500
-5.612000	-0.488000	1019.371033	-0.201250	0.621250	-0.323750
-8.662000	3.965000	1015.772034	-0.341250	0.433125	-0.306250
-9.394000	-1.037000	1018.273010	-0.214375	0.441875	-0.214375
-6.832000	1.403000	1017.846008	-0.253750	0.533750	-0.280000
-7.930000	-0.610000	1015.650024	-0.266875	0.511875	-0.319375
-10.736000	-0.366000	1017.723999	-0.424375	0.603750	-0.393750
-8.723001	0.610000	1014.186035	-0.380625	0.564375	-0.371875
-9.516000	4.087000	1012.356018	-0.201250	0.700000	-0.332500
-7.442000	5.978000	1016.320984	0.008750	0.630000	-0.358750
-12.200000	0.976000	1012.966003	-0.135625	0.599375	-0.258125
-7.137000	4.331000	1016.260010	-0.140000	0.595000	-0.284375
-6.466000	2.684000	1017.114014	-0.188125	0.275625	-0.275625
-7.686000	1.830000	1016.747986	-0.253750	0.415625	-0.350000
-11.346000	1.708000	1014.429993	-0.455000	0.446250	-0.393750
-6.893000	1.830000	1019.614990	-0.293125	0.533750	-0.280000
-5.002000	3.294000	1014.796021	-0.227500	0.533750	-0.223125
-11.529000	-0.366000	1017.785034	-0.301875	0.529375	-0.223125
-9.882000	-2.196000	1014.918030	-0.245000	0.415625	-0.301875
-9.516000	-2.562000	1016.626038	-0.380625	0.441875	-0.253750
-12.810000	3.599000	1018.882996	-0.476875	0.595000	-0.196875
-6.771000	-2.562000	1018.212036	-0.354375	0.568750	-0.354375
-8.906000	2.257000	1016.260010	-0.236250	0.735000	-0.323750
-13.664001	0.244000	1013.820007	-0.223125	0.463750	-0.363125
-12.810000	2.989000	1016.320984	-0.249375	0.437500	-0.258125
-8.723001	3.416000	1018.760986	-0.385000	0.507500	-0.284375
-7.930000	1.464000	1016.747986	-0.196875	0.494375	-0.328125
-14.335000	1.098000	1017.601990	-0.013125	0.511875	-0.271250
-10.553000	4.697000	1014.064026	-0.035000	0.441875	-0.218750
-9.150001	0.610000	1013.332031	-0.297500	0.599375	-0.262500
-6.832000	-1.464000	1016.992004	-0.459375	0.857500	-0.293125
-10.980000	5.551000	1017.480042	-0.249375	0.511875	-0.367500
-7.747000	-0.915000	1016.260010	-0.153125	0.367500	-0.258125
-7.320000	-1.464000	1013.210022	-0.385000	0.455000	-0.249375
-12.566000	0.122000	1015.161987	-0.389375	0.498750	-0.306250
-15.372000	5.673000	1015.772034	-0.345625	0.787500	-0.196875
-9.089000	-0.671000	1016.015991	-0.113750	0.748125	-0.336875
1.586000	3.477000	1016.992004	-0.131250	0.507500	-0.350000
-3.416000	2.440000	1017.968018	-0.323750	0.564375	-0.297500
-16.714001	3.294000	1019.554016	-0.350000	0.507500	-0.166250
-8.479000	0.732000	1015.710999	-0.345625	0.503125	-0.332500
-7.930000	5.063000	1017.906982	-0.398125	0.406875	-0.258125
-10.614000	0.976000	1012.539001	-0.240625	0.389375	-0.192500
-9.638000	-0.732000	1017.174988	-0.389375	0.616875	-0.385000
-14.518001	7.869000	1016.382019	-0.293125	0.713125	-0.310625
-1.098000	-2.867000	1018.578003	-0.315000	0.468125	-0.301875
-2.074000	0.305000	1018.822021	-0.332500	0.529375	-0.380625
-11.651000	3.477000	1016.504028	-0.393750	0.634375	-0.293125
-15.006001	5.490000	1016.869995	-0.358750	0.704375	-0.166250
-2.745000	-5.612000	1013.210022	-0.135625	0.756875	-0.380625
-8.235000	1.647000	1015.955017	-0.175000	0.551250	-0.262500
-13.725000	3.782000	1016.138000	-0.284375	0.520625	-0.175000
-7.259000	-1.708000	1018.090027	-0.188125	0.463750	-0.336875
-8.174000	-0.366000	1015.161987	-0.109375	0.315000	-0.332500
-10.370000	-6.405000	1015.893982	0.004375	0.223125	-0.315000
-11.834001	3.233000	1013.332031	-0.275625	0.485625	-0.336875
-9.333000	4.026000	1014.307983	-0.275625	0.542500	-0.380625
-3.599000	0.366000	1017.419006	-0.113750	0.542500	-0.157500
-5.978000	0.854000	1016.260010	-0.236250	0.630000	-0.188125
-7.137000	1.708000	1016.260010	-0.284375	0.581875	-0.319375
-8.784000	0.244000	1016.015991	-0.223125	0.490000	-0.275625
-6.161000	3.599000	1017.968018	-0.205625	0.564375	-0.284375
-6.588000	0.732000	1013.332031	-0.105000	0.643125	-0.354375
-10.980000	-0.732000	1017.663025	-0.148750	0.433125	-0.223125
-12.322001	2.867000	1017.723999	-0.231875	0.306250	-0.266875
-5.429000	1.220000	1018.822021	-0.310625	0.385000	-0.424375
-4.392000	2.196000	1015.893982	-0.315000	0.756875	-0.271250
-12.261000	4.514000	1015.893982	-0.148750	0.695625	-0.236250
-10.004000	0.976000	1016.382019	-0.100625	0.686875	-0.354375
-5.795000	0.732000	1015.893982	-0.065625	0.503125	-0.205625
-8.662000	2.074000	1017.236023	-0.196875	0.332500	-0.262500
-10.614000	-1.220000	1016.869995	-0.411250	0.341250	-0.293125
-9.516000	-7.137000	1013.454041	-0.446250	0.459375	-0.371875
-8.540000	0.183000	1018.517029	-0.363125	0.743750	-0.385000
-9.272000	4.575000	1015.161987	-0.188125	0.778750	-0.371875
-5.429000	2.684000	1018.151001	-0.380625	0.389375	-0.323750
-11.895000	-4.087000	1017.114014	-0.498750	0.428750	-0.328125
-7.259000	1.525000	1016.992004	-0.686875	0.529375	-0.328125
-8.052000	5.795000	1018.517029	-0.249375	0.717500	-0.293125
-9.638000	0.061000	1016.504028	-0.183750	0.560000	-0.350000
-10.004000	2.074000	1015.893982	-0.275625	0.450625	-0.280000
-9.638000	1.830000	1015.528015	-0.350000	0.415625	-0.271250
-6.771000	0.854000	1015.283997	-0.450625	0.643125	-0.201250
-5.978000	3.233000	1017.785034	-0.249375	0.651875	-0.240625
-10.980000	-1.220000	1019.676025	-0.201250	0.485625	-0.175000
-5.673000	0.915000	1015.283997	-0.380625	0.398125	-0.350000
-10.797000	-5.185000	1014.429993	-0.520625	0.463750	-0.293125
-7.381000	-0.305000	1014.674011	-0.218750	0.441875	-0.332500
-11.102000	1.037000	1016.565002	-0.494375	0.450625	-0.301875
-8.235000	-3.294000	1013.210022	-0.455000	0.590625	-0.245000
-12.322001	0.793000	1016.199036	-0.245000	0.560000	-0.262500
-11.102000	2.318000	1015.040039	-0.315000	0.529375	-0.275625
-11.834001	6.893000	1014.552002	-0.310625	0.428750	-0.301875
-7.137000	1.891000	1018.273010	-0.310625	0.634375	-0.328125
-8.906000	3.294000	1012.783020	-0.389375	0.678125	-0.293125
-8.418000	-3.599000	1011.746033	-0.376250	0.406875	-0.280000
-7.808000	2.013000	1014.125000	-0.411250	0.603750	-0.315000
-8.174000	0.976000	1015.528015	-0.227500	0.717500	-0.332500
-6.466000	4.697000	1012.356018	-0.310625	0.529375	-0.227500
-10.248000	0.488000	1016.931030	-0.280000	0.546875	-0.223125
-7.015000	3.965000	1014.307983	-0.284375	0.765625	-0.358750
-9.272000	1.098000	1011.989990	-0.148750	0.778750	-0.310625
-10.126000	2.684000	1016.565002	-0.026250	0.525000	-0.288750
-10.858000	2.196000	1014.796021	-0.091875	0.415625	-0.275625
-12.444000	3.050000	1019.005005	-0.253750	0.490000	-0.297500
